aX,aY,aZ,gX,gY,gZ,label
-1.229,0.929,0.370,-5.859,-23.926,49.561,0
-1.400,0.941,0.379,-11.169,-36.804,29.846,0
-1.363,0.946,0.373,-10.986,-45.532,11.292,0
-1.299,0.922,0.342,-14.160,-56.274,0.427,0
-1.182,0.837,0.269,-18.799,-56.091,-23.254,0
-1.020,0.808,0.205,-21.912,-58.838,-46.997,0
-0.857,0.770,0.124,-23.071,-65.002,-64.575,0
-0.708,0.745,0.064,-22.217,-63.843,-79.468,0
-0.571,0.740,0.010,-20.569,-59.204,-92.529,0
-0.506,0.746,-0.022,-16.418,-59.448,-99.426,0
-0.434,0.744,-0.030,-11.169,-65.491,-103.943,0
-0.354,0.734,-0.023,-10.498,-67.444,-109.619,0
-0.272,0.733,-0.032,-13.000,-65.063,-111.633,0
-0.224,0.747,-0.117,-19.287,-56.885,-115.234,0
-0.139,0.755,-0.222,-15.381,-53.040,-119.568,0
0.014,0.791,-0.259,-3.052,-61.157,-120.972,0
0.003,0.781,-0.198,10.315,-81.055,-113.953,0
0.028,0.758,-0.079,15.259,-76.721,-118.286,0
0.216,0.789,-0.101,6.042,-49.988,-124.268,0
0.337,0.861,-0.224,2.808,-35.156,-126.526,0
0.562,0.861,-0.242,10.254,-36.926,-123.657,0
0.678,0.810,-0.186,19.836,-40.527,-106.873,0
0.850,0.823,-0.133,23.682,-24.658,-90.820,0
0.962,0.880,-0.130,21.912,-3.113,-70.923,0
1.081,0.932,-0.179,20.691,5.920,-49.683,0
1.182,0.935,-0.142,24.414,0.916,-25.146,0
1.173,0.914,-0.071,27.710,0.916,2.625,0
1.130,0.930,-0.026,27.222,7.324,31.982,0
0.975,0.923,0.025,24.109,10.559,43.823,0
0.849,0.929,0.045,18.982,16.602,62.500,0
0.656,0.929,0.032,14.221,23.010,78.003,0
0.523,0.910,0.006,13.367,31.860,86.304,0
0.420,0.885,-0.002,14.099,42.786,93.567,0
0.322,0.849,0.050,13.245,51.147,103.699,0
0.257,0.860,0.064,10.681,51.819,109.314,0
0.059,0.811,-0.017,6.226,61.707,113.831,0
0.076,0.873,-0.062,3.845,64.209,101.624,0
0.010,0.826,-0.073,7.019,71.167,101.379,0
-0.106,0.776,-0.054,18.311,70.251,104.370,0
-0.116,0.822,0.058,27.527,51.025,106.812,0
-0.161,0.767,0.086,18.372,46.265,109.253,0
-0.208,0.754,0.082,15.381,42.786,115.662,0
-0.411,0.775,0.061,16.846,40.344,115.540,0
-0.527,0.796,0.080,17.029,44.006,96.985,0
-0.577,0.833,0.175,18.677,52.124,84.961,0
-0.553,0.841,0.255,13.245,65.857,75.928,0
-0.508,0.870,0.220,4.150,71.045,82.397,0
-0.707,0.869,0.226,-4.578,57.434,83.069,0
-0.880,0.894,0.216,-6.165,34.424,84.839,0
-1.033,0.905,0.277,0.610,10.864,82.458,0
-1.158,0.904,0.339,-3.357,8.972,74.402,0
-1.159,0.913,0.347,-6.348,-10.254,57.739,0
-1.282,0.905,0.341,-5.493,-29.602,56.030,0
-1.302,0.888,0.365,-7.812,-50.293,33.508,0
-1.310,0.843,0.369,-14.832,-67.566,5.371,0
-1.233,0.838,0.270,-27.405,-51.331,-23.010,0
-1.137,0.807,0.152,-29.907,-45.837,-47.302,0
-0.969,0.760,0.118,-28.442,-46.631,-67.871,0
-0.850,0.740,0.090,-27.527,-45.654,-83.252,0
-0.708,0.713,0.046,-26.001,-51.941,-97.595,0
-0.559,0.706,0.017,-22.766,-56.091,-109.131,0
-0.471,0.705,-0.025,-21.667,-46.448,-118.042,0
-0.353,0.713,-0.072,-20.813,-37.781,-128.845,0
-0.214,0.724,-0.113,-19.104,-35.034,-133.667,0
-0.084,0.739,-0.152,-12.817,-42.847,-134.399,0
0.017,0.762,-0.152,-7.629,-47.119,-134.949,0
0.168,0.754,-0.169,-8.606,-50.842,-132.874,0
0.238,0.765,-0.217,-9.338,-47.546,-128.235,0
0.342,0.823,-0.269,-5.676,-42.969,-124.329,0
0.445,0.851,-0.331,0.854,-39.368,-118.530,0
0.469,0.858,-0.330,10.986,-41.199,-110.962,0
0.562,0.869,-0.322,16.052,-38.025,-104.980,0
0.706,0.862,-0.283,25.330,-32.227,-99.915,0
0.849,0.864,-0.164,29.663,-27.039,-83.191,0
0.912,0.892,-0.153,22.644,-14.038,-62.134,0
0.970,0.947,-0.220,17.578,-15.930,-38.757,0
0.975,0.961,-0.251,20.447,-13.245,-18.433,0
1.001,0.948,-0.197,26.306,-5.676,-0.183,0
0.953,0.923,-0.083,28.259,3.540,20.691,0
0.855,0.909,-0.047,19.897,17.456,39.551,0
0.764,0.916,-0.100,14.771,21.057,55.054,0
0.627,0.895,-0.134,15.869,23.437,68.054,0
0.578,0.898,-0.122,21.790,27.161,76.172,0
0.532,0.898,-0.106,24.719,26.672,89.478,0
0.399,0.865,-0.069,28.442,34.058,93.811,0
0.326,0.853,-0.029,22.644,46.021,93.994,0
0.262,0.828,-0.003,15.625,56.030,99.731,0
-0.005,0.795,-0.030,15.198,52.917,110.718,0
-0.087,0.866,-0.036,26.001,37.598,106.323,0
-0.109,0.845,-0.005,26.917,39.856,94.299,0
-0.078,0.831,0.049,25.452,74.036,88.867,0
-0.094,0.825,0.097,25.146,78.369,107.544,0
-0.322,0.810,0.141,25.513,57.800,106.934,0
-0.453,0.851,0.170,27.344,5.615,111.938,0
-0.536,0.848,0.163,23.315,-18.494,105.774,0
-0.403,0.831,0.076,12.390,22.034,78.857,0
-0.275,0.844,0.059,9.155,73.669,63.354,0
-0.426,0.863,0.106,15.015,80.811,70.496,0
-0.508,0.859,0.156,22.400,47.668,74.585,0
-0.581,0.881,0.244,20.630,25.635,74.280,0
-0.685,0.868,0.267,13.794,11.963,67.627,0
-0.728,0.905,0.286,7.324,37.354,54.260,0
-0.807,0.956,0.319,0.000,35.706,43.457,0
-0.918,0.918,0.311,-2.319,3.479,42.053,0
-1.097,0.938,0.372,3.052,-22.400,44.800,0
-1.148,0.929,0.375,-6.104,-23.254,30.640,0
-1.198,0.896,0.372,-9.644,-20.081,21.057,0
-1.174,0.907,0.338,-20.325,-13.977,-2.747,0
-1.043,0.898,0.264,-25.452,-15.381,-23.254,0
-0.951,0.864,0.221,-28.137,-11.169,-37.292,0
-0.817,0.827,0.190,-31.006,-12.817,-50.598,0
-0.717,0.811,0.184,-34.668,-26.733,-59.998,0
-0.627,0.807,0.120,-39.490,-32.715,-66.467,0
-0.535,0.803,0.016,-42.175,-37.292,-73.608,0
-0.437,0.820,-0.051,-37.598,-34.546,-83.435,0
-0.391,0.831,-0.069,-30.640,-45.410,-83.923,0
-0.391,0.779,-0.091,-24.597,-56.091,-87.463,0
-0.278,0.787,-0.127,-19.592,-44.861,-99.060,0
-0.210,0.802,-0.158,-18.372,-39.734,-104.492,0
-1.269,0.958,0.334,-4.272,-19.531,74.097,0
-1.299,0.941,0.304,-4.395,-27.954,59.692,0
-1.308,0.919,0.308,-4.272,-40.466,42.786,0
-1.314,0.843,0.299,-8.728,-41.748,20.813,0
-1.283,0.828,0.244,-20.081,-42.053,6.042,0
-1.170,0.825,0.139,-26.184,-46.326,-21.667,0
-1.075,0.801,0.055,-26.794,-36.621,-43.457,0
-0.949,0.784,0.044,-21.790,-34.790,-64.758,0
-0.791,0.764,0.049,-20.325,-36.804,-82.031,0
-0.653,0.739,0.032,-21.179,-37.170,-94.116,0
-0.505,0.739,0.003,-21.973,-38.818,-103.271,0
-0.380,0.738,-0.036,-21.545,-39.429,-108.948,0
-0.314,0.746,-0.064,-19.531,-49.133,-111.206,0
-0.214,0.743,-0.100,-17.639,-54.993,-114.807,0
-0.120,0.745,-0.137,-16.357,-46.021,-117.981,0
-0.102,0.779,-0.153,-14.648,-37.842,-121.094,0
-0.007,0.761,-0.161,-12.329,-39.856,-122.803,0
0.102,0.781,-0.179,-6.348,-51.941,-117.798,0
0.162,0.797,-0.163,-4.028,-35.217,-116.211,0
0.195,0.815,-0.151,-1.587,-37.537,-116.943,0
0.348,0.825,-0.143,-1.953,-25.146,-121.033,0
0.498,0.859,-0.158,-4.150,-23.132,-118.286,0
0.665,0.887,-0.227,-5.371,-14.465,-110.413,0
0.788,0.899,-0.224,-1.099,-15.930,-96.924,0
0.923,0.904,-0.240,2.380,-12.146,-78.735,0
0.981,0.929,-0.267,5.066,-7.324,-59.265,0
1.024,0.932,-0.276,6.104,0.916,-41.382,0
1.063,0.915,-0.302,7.080,8.362,-22.156,0
1.029,0.899,-0.291,12.634,9.033,0.610,0
0.921,0.878,-0.236,16.724,9.521,22.705,0
0.803,0.871,-0.209,14.526,15.198,38.879,0
0.737,0.863,-0.224,11.536,23.315,48.828,0
0.660,0.877,-0.250,12.817,25.879,51.941,0
0.590,0.880,-0.247,17.395,30.090,59.021,0
0.531,0.879,-0.201,21.790,34.363,65.918,0
0.474,0.863,-0.162,23.376,38.574,73.242,0
0.378,0.848,-0.122,22.278,41.931,79.468,0
0.308,0.858,-0.140,20.081,43.823,83.374,0
0.259,0.856,-0.144,24.536,44.556,89.050,0
0.176,0.843,-0.136,26.306,44.861,91.248,0
0.137,0.821,-0.123,29.724,50.964,91.125,0
0.073,0.802,-0.097,32.349,58.105,93.201,0
-0.048,0.808,-0.045,37.659,41.199,99.792,0
-0.140,0.796,0.011,38.391,23.193,105.286,0
-0.221,0.780,0.010,35.278,20.935,103.455,0
-0.301,0.825,0.019,32.043,31.982,95.520,0
-0.344,0.854,0.032,33.264,40.649,94.482,0
-0.463,0.846,0.114,33.325,30.762,93.811,0
-0.525,0.829,0.178,31.494,14.038,90.027,0
-0.553,0.841,0.167,23.560,28.687,81.909,0
-0.727,0.889,0.142,20.325,48.523,75.684,0
-0.833,0.924,0.211,23.621,33.508,62.256,0
-0.881,0.952,0.313,21.912,29.114,49.011,0
-0.876,0.980,0.336,18.677,35.339,43.396,0
-0.890,1.051,0.404,10.376,18.738,41.565,0
-0.969,0.992,0.379,3.174,-15.747,45.715,0
-1.047,0.968,0.389,2.380,-51.941,38.879,0
-1.061,0.914,0.337,-6.653,-65.613,21.423,0
-1.021,0.909,0.255,-16.663,-52.551,-2.502,0
-0.912,0.887,0.162,-25.696,-28.748,-28.015,0
-0.842,0.876,0.101,-28.320,-12.451,-48.279,0
-0.704,0.873,0.078,-26.184,-13.855,-63.965,0
-0.579,0.860,0.069,-23.376,-22.522,-70.984,0
-0.514,0.840,0.049,-23.437,-26.611,-76.111,0
-0.438,0.821,0.038,-23.987,-33.569,-82.153,0
-0.399,0.820,0.018,-27.161,-31.921,-87.280,0
-0.331,0.817,-0.041,-29.419,-27.466,-94.177,0
-0.213,0.818,-0.088,-28.687,-27.100,-99.121,0
-0.132,0.813,-0.120,-25.879,-31.250,-99.548,0
-0.092,0.811,-0.143,-20.081,-42.603,-96.069,0
-0.062,0.817,-0.141,-13.855,-53.711,-96.191,0
-0.006,0.799,-0.113,-13.000,-49.744,-100.647,0
0.088,0.815,-0.137,-14.160,-38.940,-105.469,0
0.226,0.843,-0.179,-13.428,-34.973,-106.873,0
0.335,0.841,-0.205,-10.803,-29.053,-102.722,0
0.471,0.859,-0.176,-6.775,-33.081,-96.069,0
0.596,0.898,-0.202,-5.676,-31.982,-86.548,0
0.694,0.912,-0.224,-3.906,-28.870,-74.829,0
0.809,0.928,-0.230,-1.221,-21.973,-62.988,0
0.895,0.940,-0.217,1.526,-14.587,-48.462,0
0.947,0.908,-0.189,2.380,-12.451,-29.480,0
0.954,0.927,-0.186,1.282,-11.230,-8.728,0
0.916,0.925,-0.227,0.305,-8.423,5.920,0
0.893,0.927,-0.284,1.709,3.540,12.024,0
0.831,0.903,-0.288,5.737,13.000,25.574,0
0.741,0.877,-0.275,8.850,20.569,36.987,0
0.672,0.867,-0.283,11.169,26.184,45.959,0
0.614,0.863,-0.275,14.221,30.334,55.237,0
0.535,0.851,-0.244,16.968,33.936,65.857,0
0.434,0.861,-0.230,19.043,38.147,71.594,0
0.421,0.859,-0.231,20.569,44.800,74.585,0
0.381,0.847,-0.223,23.926,49.683,76.721,0
0.323,0.839,-0.173,29.419,52.002,84.412,0
0.218,0.819,-0.107,33.752,45.166,94.360,0
0.129,0.801,-0.064,34.302,41.687,100.647,0
0.088,0.784,-0.061,33.142,46.509,101.440,0
0.010,0.810,-0.040,34.424,48.645,105.530,0
-0.075,0.813,0.034,37.842,31.494,113.953,0
-0.212,0.807,0.103,37.720,23.560,116.821,0
-0.348,0.824,0.163,31.128,31.616,116.333,0
-0.364,0.813,0.152,17.334,59.631,105.774,0
-0.461,0.835,0.156,8.057,85.449,94.055,0
-0.719,0.891,0.174,13.428,84.656,92.468,0
-0.851,0.947,0.323,24.963,33.142,84.595,0
-0.902,0.913,0.418,14.832,-0.427,72.998,0
-1.016,0.928,0.413,5.737,3.845,65.674,0
-0.956,0.975,0.328,-9.155,23.437,51.208,0
-0.885,0.976,0.235,-15.869,23.437,45.532,0
-1.053,0.916,0.230,-13.428,-0.305,44.861,0
-1.022,0.906,0.257,-10.681,-39.001,33.875,0
-1.036,0.879,0.228,-16.479,-57.617,21.179,0
-1.003,0.872,0.151,-25.513,-45.471,4.578,0
-0.951,0.855,0.051,-30.334,-37.842,-14.587,0
-0.883,0.847,-0.024,-29.907,-26.611,-33.569,0
-0.819,0.837,-0.022,-23.376,-31.677,-49.805,0
-0.714,0.806,-0.005,-18.677,-40.527,-64.880,0
-0.605,0.801,-0.034,-18.738,-36.560,-78.186,0
-0.502,0.792,-0.073,-19.470,-32.776,-89.355,0
-0.414,0.783,-0.096,-18.555,-31.860,-97.961,0
1.477,0.825,-0.371,-6.531,-10.071,-78.674,0
1.457,0.828,-0.395,-4.395,-38.025,-32.166,0
1.383,0.848,-0.475,12.939,-24.048,0.305,0
1.352,0.852,-0.510,5.493,-12.573,13.123,0
1.230,0.824,-0.422,15.198,4.089,41.687,0
1.081,0.784,-0.402,19.714,15.198,64.941,0
0.970,0.780,-0.378,24.719,12.573,84.167,0
0.896,0.768,-0.354,26.611,14.038,93.506,0
0.742,0.734,-0.319,29.541,21.179,109.863,0
0.595,0.715,-0.271,32.410,25.085,123.291,0
0.498,0.694,-0.247,35.217,36.072,130.798,0
0.359,0.728,-0.224,37.903,35.034,133.301,0
0.196,0.720,-0.151,44.922,31.250,140.747,0
0.059,0.704,-0.017,45.288,32.715,143.860,0
-0.054,0.695,0.049,37.842,31.921,144.409,0
-0.171,0.706,0.059,33.508,31.311,145.081,0
-0.361,0.764,0.063,32.471,17.700,148.926,0
-0.560,0.802,0.099,31.860,-13.000,151.917,0
-0.591,0.843,0.167,29.358,-15.747,149.597,0
-0.815,0.849,0.283,16.846,0.000,148.865,0
-0.944,0.788,0.285,6.348,16.968,145.813,0
-1.285,0.758,0.212,-3.540,13.794,122.925,0
-1.321,0.861,0.220,-2.014,-19.958,84.839,0
-1.341,0.904,0.106,-13.794,11.597,59.082,0
-1.329,0.926,0.076,-13.428,16.296,36.865,0
-1.215,0.874,0.102,-10.620,-6.775,22.156,0
-1.309,0.787,0.112,-12.695,-11.536,0.732,0
-1.135,0.802,0.078,-12.756,-32.227,-32.837,0
-1.081,0.806,0.007,-16.541,-25.208,-58.350,0
-0.963,0.822,-0.062,-16.968,-3.723,-79.224,0
-0.893,0.765,-0.019,-13.062,-8.484,-97.656,0
-0.768,0.769,-0.010,-10.254,-12.939,-114.868,0
-0.620,0.775,-0.022,-9.277,-16.968,-126.770,0
-0.449,0.747,-0.020,-9.766,-26.367,-132.812,0
-0.314,0.732,-0.034,-11.963,-37.109,-131.409,0
-0.331,0.720,-0.071,-14.221,-34.729,-139.587,0
-0.224,0.725,-0.135,-17.944,-20.325,-158.875,0
0.056,0.710,-0.201,-20.813,5.127,-171.692,0
0.135,0.704,-0.204,-17.761,12.207,-169.434,0
0.404,0.748,-0.219,-12.024,3.174,-165.955,0
0.419,0.741,-0.183,-5.493,-19.165,-153.320,0
0.590,0.758,-0.202,-8.606,-12.634,-147.522,0
0.748,0.798,-0.280,-11.230,-3.662,-138.916,0
0.858,0.807,-0.311,-7.812,0.366,-122.437,0
1.007,0.825,-0.293,-1.404,-4.578,-102.478,0
1.185,0.834,-0.307,0.183,-12.817,-75.439,0
1.225,0.828,-0.312,2.258,-26.672,-40.894,0
1.141,0.842,-0.356,3.235,-17.761,-15.259,0
1.120,0.835,-0.397,6.287,1.892,-0.916,0
1.112,0.825,-0.337,14.038,10.925,17.151,0
0.966,0.796,-0.283,17.334,9.766,37.842,0
0.916,0.799,-0.279,16.663,9.338,50.354,0
0.838,0.813,-0.314,16.418,13.062,54.993,0
0.806,0.813,-0.354,19.653,17.029,67.383,0
0.700,0.802,-0.326,26.611,19.531,81.482,0
0.603,0.796,-0.252,32.166,22.278,91.797,0
0.522,0.779,-0.169,33.203,23.193,102.844,0
0.445,0.761,-0.136,29.907,16.052,114.807,0
0.373,0.770,-0.149,27.161,16.113,122.620,0
0.345,0.774,-0.161,28.564,19.287,133.667,0
0.150,0.747,-0.120,31.738,16.174,140.076,0
-0.057,0.742,-0.043,36.377,7.263,144.714,0
-0.158,0.751,0.013,34.485,1.587,139.709,0
-0.209,0.754,0.024,26.306,16.235,129.944,0
-0.310,0.805,0.007,23.315,21.301,128.479,0
-0.451,0.828,0.048,29.114,-3.479,134.460,0
-0.508,0.832,0.063,30.029,-18.677,132.080,0
-0.560,0.840,0.095,30.518,-16.541,121.460,0
-0.663,0.859,0.157,21.301,7.935,110.718,0
-0.795,0.871,0.166,8.972,42.175,99.915,0
-1.005,0.906,0.204,4.883,27.344,93.323,0
-1.167,0.901,0.200,6.531,0.122,86.121,0
-1.263,0.905,0.192,4.211,-22.278,66.711,0
-1.260,0.892,0.173,3.479,-34.485,41.931,0
-1.217,0.881,0.127,0.305,-27.771,15.625,0
-1.148,0.871,0.150,-0.671,-27.344,-13.062,0
-1.126,0.835,0.144,-5.127,-21.423,-41.382,0
-0.967,0.854,0.122,-9.155,-10.925,-72.571,0
-0.840,0.859,0.082,-14.954,5.981,-85.938,0
-0.706,0.856,0.067,-15.564,-2.319,-91.064,0
-0.598,0.822,0.053,-16.174,-9.705,-96.863,0
-0.536,0.814,0.045,-17.090,-19.165,-102.966,0
-0.433,0.790,0.039,-19.714,-23.621,-114.258,0
-0.357,0.778,0.002,-25.208,-3.418,-126.648,0
-0.225,0.794,-0.047,-27.161,14.221,-137.573,0
-0.041,0.802,-0.091,-26.306,11.597,-136.841,0
0.051,0.785,-0.123,-24.963,-6.165,-126.343,0
0.042,0.800,-0.136,-23.010,-16.663,-121.277,0
0.055,0.794,-0.157,-23.499,-13.123,-126.526,0
0.157,0.779,-0.188,-25.574,10.132,-137.939,0
0.389,0.799,-0.266,-27.161,26.550,-143.311,0
0.533,0.790,-0.307,-23.254,29.846,-137.268,0
0.730,0.800,-0.334,-16.846,28.076,-125.183,0
0.862,0.829,-0.338,-10.925,13.245,-103.760,0
0.992,0.830,-0.328,-7.324,-3.479,-78.369,0
1.091,0.853,-0.345,-5.554,-26.794,-48.767,0
1.070,0.869,-0.378,-4.211,-28.564,-20.020,0
0.999,0.854,-0.390,-0.854,-13.367,0.488,0
0.989,0.849,-0.381,5.188,-3.174,15.503,0
0.979,0.841,-0.364,9.460,-2.014,31.860,0
0.919,0.837,-0.365,11.047,-1.709,48.889,0
0.822,0.830,-0.355,14.038,-0.610,55.603,0
0.725,0.823,-0.345,16.479,5.493,68.237,0
0.613,0.811,-0.328,20.630,11.597,78.552,0
0.522,0.811,-0.306,25.208,14.893,85.632,0
0.479,0.811,-0.267,30.212,16.052,93.140,0
0.393,0.799,-0.217,33.142,19.836,101.807,0
0.275,0.796,-0.177,34.729,23.743,109.497,0
0.223,0.789,-0.149,36.804,20.386,115.356,0
0.098,0.789,-0.124,38.513,19.104,117.249,0
-0.020,0.788,-0.075,38.757,21.973,114.929,0
-0.059,0.786,-0.067,37.048,33.325,109.375,0
-0.166,0.809,-0.020,36.194,31.128,106.201,0
-0.244,0.861,0.034,38.330,14.465,109.558,0
-0.454,0.855,0.144,37.415,-1.404,111.938,0
-0.500,0.880,0.182,25.391,28.259,97.900,0
-0.522,0.905,0.177,2.686,51.941,84.412,0
-0.563,0.938,0.181,10.010,58.838,80.444,0
-0.616,0.952,0.227,8.118,61.646,79.224,0
1.236,0.852,-0.511,16.235,-17.517,-17.517,0
1.113,0.824,-0.536,18.616,-17.334,18.677,0
1.061,0.821,-0.520,22.156,-11.963,44.739,0
0.937,0.789,-0.449,27.222,-7.935,54.321,0
0.888,0.782,-0.405,25.696,0.488,71.411,0
0.762,0.766,-0.404,26.733,7.080,89.905,0
0.702,0.779,-0.381,33.020,6.470,107.971,0
0.633,0.762,-0.310,35.583,-5.737,130.005,0
0.414,0.735,-0.247,34.302,-5.798,136.963,0
0.275,0.726,-0.203,28.992,-2.136,146.179,0
0.074,0.739,-0.223,26.794,-2.930,153.076,0
-0.066,0.768,-0.183,31.250,-9.949,160.400,0
-0.198,0.771,-0.063,25.146,-7.324,162.292,0
-0.241,0.740,-0.040,14.404,4.456,168.152,0
-0.313,0.780,-0.063,9.033,-1.038,179.687,0
-0.513,0.762,-0.052,7.690,-25.635,188.660,0
-0.773,0.755,0.001,5.859,-29.907,187.439,0
-1.008,0.729,0.032,-2.380,-12.329,173.706,0
-1.389,0.710,0.028,-10.132,-7.568,148.132,0
-1.445,0.771,0.008,-8.728,-5.859,108.093,0
-1.445,0.777,-0.039,-17.090,1.343,68.237,0
-1.427,0.768,-0.110,-19.165,-1.465,36.987,0
-1.375,0.758,-0.132,-12.268,-19.531,4.883,0
-1.247,0.757,-0.115,-7.080,-40.344,-29.480,0
-1.155,0.737,-0.122,-6.958,-28.259,-62.256,0
-0.983,0.718,-0.153,-7.568,-15.930,-91.492,0
-0.831,0.713,-0.168,-5.432,-16.174,-110.840,0
-0.667,0.722,-0.195,-3.296,-16.357,-127.380,0
-0.558,0.734,-0.229,1.404,-23.132,-139.343,0
-0.391,0.754,-0.223,7.874,-32.043,-148.071,0
-0.327,0.740,-0.210,11.230,-31.738,-155.884,0
-0.189,0.713,-0.181,12.878,-20.081,-170.898,0
0.001,0.730,-0.193,5.310,0.977,-183.838,0
0.299,0.763,-0.308,4.150,20.264,-183.777,0
0.363,0.785,-0.371,7.385,3.845,-174.194,0
0.505,0.777,-0.369,15.747,11.536,-162.659,0
0.570,0.767,-0.331,15.015,20.264,-151.978,0
0.733,0.769,-0.301,15.381,20.813,-141.785,0
0.869,0.815,-0.316,12.878,3.113,-114.014,0
0.944,0.844,-0.342,7.935,-10.010,-83.252,0
0.956,0.852,-0.364,9.277,-17.456,-53.284,0
1.029,0.902,-0.374,12.634,-21.851,-29.419,0
1.036,0.880,-0.363,15.686,-14.282,-5.859,0
0.976,0.861,-0.311,16.907,0.854,13.977,0
0.883,0.865,-0.301,17.151,9.277,30.884,0
0.796,0.868,-0.304,18.799,10.132,45.410,0
0.755,0.863,-0.295,18.433,20.508,58.655,0
0.672,0.853,-0.295,20.020,23.560,65.735,0
0.558,0.833,-0.281,22.644,29.358,78.003,0
0.448,0.829,-0.262,27.527,25.635,87.341,0
0.376,0.824,-0.237,31.189,23.132,93.445,0
0.302,0.807,-0.196,33.142,19.531,100.830,0
0.255,0.805,-0.172,36.804,13.855,109.802,0
0.222,0.803,-0.121,39.063,8.057,124.084,0
0.123,0.786,-0.090,37.720,8.423,130.859,0
-0.049,0.756,-0.031,31.494,5.493,140.747,0
-0.221,0.744,-0.038,26.062,-6.042,142.944,0
-0.336,0.814,-0.012,24.658,-34.119,146.301,0
-0.440,0.844,-0.014,19.409,-43.091,150.696,0
-0.613,0.864,0.026,14.587,-47.058,153.809,0
-0.790,0.849,0.097,2.808,-14.526,138.672,0
-0.996,0.823,0.111,-10.376,24.109,116.516,0
-1.165,0.860,0.083,-10.254,9.216,91.431,0
-1.157,0.912,0.074,-7.202,-16.907,70.313,0
-1.135,0.921,0.069,-13.489,-14.282,51.758,0
-1.167,0.871,0.049,-16.357,-10.254,32.166,0
-1.192,0.846,0.045,-17.334,-15.869,22.034,0
-1.213,0.817,0.036,-18.738,-23.987,-2.808,0
-1.094,0.820,-0.013,-19.958,-26.123,-32.776,0
-1.017,0.812,-0.053,-20.020,-20.630,-57.739,0
-0.882,0.792,-0.105,-18.738,-11.597,-80.444,0
-0.773,0.783,-0.115,-16.418,-10.559,-100.159,0
-0.611,0.785,-0.110,-14.099,-11.658,-115.784,0
-0.459,0.762,-0.119,-14.343,-9.277,-126.526,0
-0.334,0.775,-0.137,-11.719,-9.399,-131.592,0
-0.215,0.797,-0.150,-7.385,-21.423,-130.127,0
-0.105,0.791,-0.157,-6.836,-33.875,-128.906,0
-0.067,0.756,-0.187,-7.874,-20.935,-133.484,0
0.014,0.766,-0.201,-9.583,-9.094,-145.935,0
0.267,0.783,-0.280,-12.146,-10.864,-150.879,0
0.408,0.786,-0.301,-10.498,-14.587,-146.240,0
0.519,0.777,-0.325,-9.399,-2.319,-141.541,0
0.703,0.779,-0.364,-9.644,17.883,-139.038,0
1.010,0.820,-0.441,-6.653,23.621,-122.864,0
1.165,0.836,-0.428,1.892,0.671,-83.252,0
1.209,0.826,-0.422,8.057,-17.944,-40.222,0
1.132,0.858,-0.406,11.780,-16.296,-6.775,0
1.076,0.876,-0.435,13.672,-4.639,18.311,0
0.956,0.855,-0.399,17.639,9.277,39.063,0
0.833,0.845,-0.337,22.034,23.193,53.467,0
0.793,0.836,-0.313,23.560,32.227,65.491,0
0.729,0.828,-0.302,25.391,33.997,73.181,0
0.625,0.812,-0.295,27.893,35.950,87.708,0
0.522,0.809,-0.256,30.212,40.100,100.098,0
0.367,0.775,-0.234,31.677,35.522,111.877,0
0.288,0.789,-0.196,40.405,19.470,121.643,0
0.147,0.775,-0.120,42.786,-4.272,133.240,0
-0.006,0.749,-0.067,37.537,-5.798,133.484,0
-0.031,0.772,-0.074,31.189,4.028,127.197,0
-0.106,0.821,-0.048,28.809,8.362,126.404,0
-0.187,0.825,0.032,23.987,8.789,131.897,0
-0.258,0.794,0.107,18.066,-7.263,144.348,0
-0.365,0.813,0.108,6.592,-37.598,160.645,0
-0.732,0.821,0.146,-4.333,-38.086,164.917,0
-1.035,0.795,0.099,-11.658,-5.066,148.254,0
-1.330,0.823,0.108,-20.081,5.920,120.605,0
-1.366,0.845,0.043,-24.353,27.588,88.440,0
-1.363,0.847,-0.016,-29.480,25.696,62.500,0
-1.307,0.827,-0.043,-30.884,-3.174,48.462,0
-1.415,0.732,-0.080,-28.076,-33.264,23.621,0
-1.316,0.759,-0.119,-20.386,-73.486,-5.249,0
-1.192,0.750,-0.157,-20.813,-36.377,-37.781,0
-1.066,0.735,-0.224,-19.653,-9.338,-69.397,0
-0.957,0.725,-0.241,-15.686,-3.357,-95.764,0
-0.836,0.731,-0.201,-11.902,-2.625,-117.432,0
-0.682,0.743,-0.203,-8.667,-3.418,-129.150,0
-0.482,0.752,-0.214,-2.808,-12.268,-133.179,0
-0.350,0.751,-0.203,1.465,-20.691,-139.343,0
-0.276,0.728,-0.186,1.953,-21.790,-143.005,0
1.325,0.807,-0.426,7.996,7.263,-29.602,0
1.213,0.813,-0.381,12.024,-17.578,15.808,0
1.143,0.821,-0.399,11.475,-20.569,45.349,0
1.024,0.824,-0.395,13.245,-16.907,56.213,0
0.941,0.815,-0.360,17.639,-1.465,73.975,0
0.868,0.796,-0.276,19.287,13.733,90.271,0
0.779,0.797,-0.209,18.494,16.541,109.070,0
0.696,0.774,-0.191,13.733,14.282,128.967,0
0.551,0.759,-0.198,11.536,1.343,149.780,0
0.354,0.759,-0.185,14.099,-7.935,157.593,0
0.155,0.750,-0.121,13.428,-24.719,169.617,0
-0.073,0.703,-0.103,7.446,-10.193,168.762,0
-0.226,0.731,-0.110,4.272,5.554,156.250,0
-0.336,0.755,-0.098,5.188,8.484,153.687,0
-0.382,0.758,-0.065,5.005,-3.357,158.142,0
-0.444,0.776,-0.033,3.052,-12.817,161.194,0
-0.741,0.731,0.010,-6.836,-16.907,161.316,0
-0.923,0.753,-0.012,-17.212,14.221,142.029,0
-1.159,0.793,-0.031,-20.386,6.653,123.962,0
-1.225,0.820,-0.040,-19.836,17.517,99.060,0
-1.231,0.821,-0.075,-24.048,23.682,74.524,0
-1.150,0.818,-0.093,-25.330,-0.061,61.707,0
-1.131,0.768,-0.128,-23.132,-29.053,55.664,0
-1.203,0.754,-0.146,-19.531,-58.533,43.030,0
-1.227,0.751,-0.178,-16.785,-66.284,18.250,0
-1.189,0.767,-0.242,-16.418,-50.964,-15.076,0
-1.049,0.760,-0.291,-11.414,-35.461,-48.523,0
-0.929,0.747,-0.260,-3.784,-33.264,-73.303,0
-0.792,0.740,-0.206,1.953,-34.241,-90.515,0
-0.682,0.703,-0.213,2.563,-36.682,-106.689,0
-0.606,0.705,-0.228,2.380,-29.480,-126.343,0
-0.563,0.701,-0.277,2.502,-10.620,-150.818,0
-0.263,0.752,-0.283,9.277,2.319,-173.828,0
-0.039,0.774,-0.290,18.066,-2.686,-172.302,0
-0.006,0.768,-0.221,24.292,-2.991,-163.696,0
0.000,0.753,-0.129,23.132,2.197,-167.297,0
0.044,0.735,-0.148,20.447,9.888,-179.871,0
0.222,0.727,-0.179,8.484,41.809,-189.209,0
0.471,0.753,-0.283,2.136,35.950,-189.941,0
0.598,0.753,-0.343,-1.587,37.659,-179.504,0
0.615,0.724,-0.437,-4.639,65.491,-178.406,0
0.880,0.727,-0.451,-0.977,83.191,-177.124,0
1.313,0.770,-0.438,3.296,49.255,-138.489,0
1.447,0.783,-0.377,8.789,-7.935,-60.486,0
1.140,0.757,-0.369,7.446,-38.513,3.906,0
1.006,0.787,-0.545,3.113,-37.598,29.724,0
0.963,0.798,-0.596,5.554,-33.752,36.194,0
0.920,0.802,-0.554,18.372,-14.038,46.570,0
0.815,0.770,-0.423,30.701,3.235,55.847,0
0.803,0.789,-0.338,36.499,18.555,63.904,0
0.812,0.794,-0.247,36.377,10.437,81.970,0
0.710,0.785,-0.239,29.419,-0.488,104.858,0
0.566,0.786,-0.246,26.123,-14.648,125.488,0
0.361,0.801,-0.189,26.733,-20.142,141.235,0
0.266,0.801,-0.164,26.367,-12.207,146.790,0
0.087,0.772,-0.131,23.132,-10.925,147.461,0
0.014,0.774,-0.104,18.616,-5.554,141.907,0
-0.053,0.782,-0.091,15.747,-1.160,137.817,0
-0.135,0.803,-0.078,9.277,9.216,137.268,0
-0.283,0.783,-0.124,7.812,18.372,141.174,0
-0.381,0.800,-0.147,12.085,7.446,138.794,0
-0.494,0.821,-0.080,16.663,-2.563,128.906,0
-0.556,0.880,0.015,10.803,26.306,110.413,0
-0.642,0.885,0.047,7.996,38.269,103.027,0
-0.851,0.894,0.087,0.244,29.419,100.830,0
-1.004,0.905,0.078,-7.324,14.893,92.041,0
-1.184,0.876,-0.035,-15.198,6.775,78.064,0
-1.214,0.898,-0.094,-10.864,-28.503,60.730,0
-1.163,0.884,-0.118,-8.728,-31.555,36.804,0
-1.143,0.847,-0.117,-6.531,-30.029,13.794,0
-1.107,0.841,-0.104,-1.709,-44.006,-7.935,0
-1.032,0.830,-0.140,-3.845,-26.123,-35.583,0
-0.911,0.817,-0.195,-4.089,-10.742,-62.744,0
-0.774,0.820,-0.185,1.587,-21.729,-78.308,0
-0.639,0.810,-0.140,7.263,-26.550,-86.853,0
-0.531,0.791,-0.103,7.996,-31.189,-94.604,0
-0.439,0.809,-0.114,6.592,-32.410,-104.614,0
-0.367,0.817,-0.109,5.493,-26.367,-114.197,0
-0.220,0.815,-0.105,3.723,-21.301,-121.094,0
-0.081,0.831,-0.098,3.784,-22.644,-124.207,0
0.068,0.842,-0.117,1.770,-30.762,-120.789,0
0.085,0.845,-0.137,-1.160,-30.273,-115.417,0
0.179,0.844,-0.144,-4.456,-21.240,-115.356,0
0.378,0.855,-0.184,-7.019,-23.254,-111.938,0
0.460,0.855,-0.230,-7.446,-31.250,-102.905,0
0.589,0.861,-0.288,-8.911,-19.409,-97.839,0
0.756,0.868,-0.311,-9.644,-8.911,-88.074,0
0.844,0.869,-0.346,-5.676,-18.860,-63.110,0
0.827,0.877,-0.358,0.000,-23.071,-40.039,0
0.833,0.870,-0.395,4.883,-11.108,-24.414,0
0.855,0.875,-0.367,10.620,-0.793,-11.047,0
0.897,0.877,-0.363,14.587,10.010,4.578,0
0.848,0.859,-0.368,16.296,15.686,12.817,0
0.788,0.854,-0.342,20.813,23.682,25.818,0
0.737,0.845,-0.305,22.522,28.137,37.354,0
0.633,0.840,-0.325,24.780,38.696,48.096,0
0.578,0.845,-0.314,30.396,40.588,57.373,0
0.486,0.843,-0.276,37.476,46.021,68.542,0
0.374,0.826,-0.210,44.250,42.908,79.956,0
0.292,0.807,-0.177,61.707,41.870,86.426,0
0.196,0.799,-0.140,48.157,41.199,87.585,0
0.092,0.806,-0.104,46.753,46.814,87.402,0
-0.002,0.805,-0.105,46.082,52.490,87.891,0
-0.066,0.818,-0.058,48.279,51.392,88.440,0
-0.048,0.879,0.016,46.143,50.781,89.966,0
-0.116,0.827,0.054,39.490,59.937,97.290,0
-0.384,0.884,0.116,42.053,38.818,107.483,0
-0.504,0.909,0.216,42.847,21.973,105.591,0
-0.644,0.945,0.333,36.377,21.790,101.868,0
-0.857,0.982,0.389,17.151,8.667,91.187,0
-0.976,1.012,0.331,1.038,14.893,73.730,0
-1.032,1.061,0.244,-6.592,5.859,56.152,0
-1.005,1.043,0.217,-8.118,-20.569,48.218,0
-1.017,1.010,0.248,-12.512,-37.354,41.077,0
-1.018,0.980,0.245,-22.644,-50.232,28.503,0
-1.068,0.921,0.151,-32.349,-50.354,11.353,0
-0.921,0.939,0.039,-35.156,-53.833,-12.207,0
-0.808,0.920,-0.056,-34.973,-51.331,-30.212,0
-0.702,0.896,-0.113,-31.372,-41.809,-45.776,0
0.022,0.963,-1.720,33.325,9.033,13.733,1
0.015,0.860,-1.829,68.481,-8.301,12.878,1
0.080,0.855,-1.847,81.421,-0.793,7.935,1
0.151,0.846,-1.791,105.896,24.597,9.705,1
0.178,0.760,-1.720,123.108,36.804,17.944,1
0.154,0.654,-1.803,119.629,28.015,26.917,1
0.144,0.529,-1.913,120.544,9.583,32.593,1
0.141,0.433,-1.996,122.253,5.737,34.302,1
0.139,0.239,-2.136,130.066,7.935,34.302,1
0.148,0.057,-2.174,145.752,11.475,28.809,1
0.160,-0.076,-2.118,161.560,4.944,20.264,1
0.223,-0.209,-2.009,177.002,-1.038,10.925,1
0.238,-0.276,-1.916,190.552,11.230,7.202,1
0.231,-0.393,-1.674,194.885,23.804,6.165,1
0.276,-0.434,-1.480,198.914,40.222,4.944,1
0.279,-0.545,-1.191,204.590,26.489,9.399,1
0.206,-0.511,-0.779,199.097,18.799,5.920,1
0.155,-0.485,-0.391,206.421,7.019,6.104,1
0.056,-0.436,-0.001,199.463,-9.155,-4.883,1
-0.010,-0.343,0.342,177.246,0.427,-19.470,1
-0.012,-0.154,0.615,143.921,14.221,-30.273,1
0.023,0.022,0.727,99.182,15.442,-26.611,1
0.028,0.126,0.731,78.796,12.329,-5.493,1
-0.041,0.321,0.699,43.274,9.033,-9.033,1
-0.047,0.522,0.605,11.536,14.221,-7.935,1
0.020,0.725,0.352,-14.282,9.521,-7.996,1
0.068,0.860,0.083,-30.212,1.343,-2.563,1
0.090,0.940,-0.139,-38.147,10.376,2.075,1
0.075,0.993,-0.344,-38.513,25.818,10.071,1
0.047,0.998,-0.403,-28.381,31.189,13.123,1
0.017,0.998,-0.403,-23.865,28.564,9.888,1
0.008,0.970,-0.372,-20.508,15.137,7.874,1
0.027,0.939,-0.427,-25.879,0.366,4.272,1
0.091,0.898,-0.514,-27.832,-8.789,2.991,1
0.081,0.869,-0.515,-22.827,-2.625,7.874,1
0.041,0.832,-0.477,-17.639,11.475,10.010,1
0.004,0.801,-0.406,-13.428,10.132,6.531,1
0.012,0.785,-0.327,-13.733,-5.432,-2.258,1
0.046,0.765,-0.271,-21.179,-18.982,-6.165,1
0.047,0.726,-0.281,-33.142,-16.907,-3.540,1
0.019,0.676,-0.358,-41.138,-7.141,0.366,1
-0.002,0.625,-0.354,-41.504,-0.488,1.343,1
0.007,0.609,-0.374,-46.387,0.549,-3.357,1
0.042,0.576,-0.343,-52.856,-9.094,-6.714,1
0.075,0.536,-0.359,-56.519,-13.611,-7.141,1
0.084,0.518,-0.371,-63.416,-13.550,-5.798,1
0.065,0.502,-0.401,-71.411,-2.808,-2.441,1
0.037,0.472,-0.427,-79.407,6.714,-0.977,1
0.039,0.428,-0.467,-88.562,4.639,-2.563,1
0.089,0.407,-0.585,-99.915,-14.465,-5.432,1
0.129,0.371,-0.767,-107.666,-28.320,-4.822,1
0.123,0.350,-0.890,-107.422,-15.686,-2.747,1
0.091,0.339,-0.928,-102.173,6.226,-3.357,1
0.115,0.345,-0.916,-95.642,10.010,-8.362,1
0.164,0.346,-0.977,-98.389,-5.127,-12.512,1
0.213,0.313,-1.096,-100.464,-24.719,-10.681,1
0.179,0.273,-1.170,-101.685,-26.184,-5.981,1
0.145,0.272,-1.170,-98.755,-12.634,-2.686,1
0.118,0.276,-1.191,-99.121,1.587,0.610,1
0.107,0.292,-1.260,-101.868,5.127,2.991,1
0.092,0.324,-1.305,-98.816,0.488,2.502,1
0.051,0.362,-1.262,-89.722,-3.723,1.221,1
-0.005,0.423,-1.215,-85.510,0.977,-0.793,1
-0.006,0.463,-1.206,-83.008,6.226,-3.174,1
-0.005,0.527,-1.167,-77.271,0.671,-5.615,1
0.022,0.555,-1.148,-72.937,-5.371,-7.141,1
-0.005,0.565,-1.144,-68.909,-8.911,-5.676,1
-0.005,0.583,-1.114,-62.256,-5.188,-7.812,1
0.017,0.589,-1.087,-54.626,-2.869,-11.292,1
0.093,0.613,-1.020,-44.006,-5.981,-15.686,1
0.115,0.635,-0.926,-36.926,-8.728,-14.709,1
0.120,0.652,-0.872,-34.607,-3.784,-10.193,1
0.102,0.651,-0.863,-33.386,-2.808,-3.723,1
0.117,0.663,-0.902,-32.837,-2.014,0.916,1
0.124,0.669,-0.998,-32.776,2.869,5.432,1
0.126,0.685,-1.039,-31.433,5.554,9.644,1
0.090,0.718,-1.145,-26.062,8.240,11.536,1
0.066,0.738,-1.224,-13.245,4.150,13.123,1
0.068,0.763,-1.265,2.930,-2.747,12.634,1
0.078,0.797,-1.365,13.855,-2.747,12.573,1
0.072,0.834,-1.460,28.076,-0.916,16.418,1
0.005,0.846,-1.571,41.016,10.864,22.644,1
-0.033,0.855,-1.606,60.425,21.362,23.743,1
-0.093,0.854,-1.659,69.275,23.376,21.118,1
-0.088,0.849,-1.774,83.984,18.433,13.916,1
-0.094,0.772,-1.867,102.234,10.559,7.324,1
-0.039,0.680,-1.954,118.347,4.944,-0.671,1
0.025,0.560,-2.018,137.573,-5.859,-2.686,1
0.074,0.435,-2.010,157.166,-10.132,-3.418,1
0.114,0.286,-1.858,180.298,-8.850,-3.906,1
0.195,0.179,-1.685,196.655,-3.723,-5.127,1
0.233,0.085,-1.568,204.102,4.761,-0.549,1
0.259,-0.014,-1.419,207.886,7.507,4.822,1
0.264,-0.041,-1.318,208.618,3.662,10.071,1
0.214,-0.107,-1.085,204.895,-7.629,12.329,1
0.175,-0.170,-0.868,206.116,-9.888,16.968,1
0.144,-0.182,-0.625,198.486,-6.714,14.771,1
0.059,-0.194,-0.408,185.425,4.578,12.390,1
0.018,-0.143,-0.170,169.800,12.512,1.953,1
0.050,-0.072,0.001,150.391,7.080,-6.165,1
0.061,-0.003,0.141,124.573,-6.348,-7.263,1
0.073,0.103,0.211,95.215,-4.211,-7.385,1
0.086,0.236,0.248,69.519,13.306,-2.808,1
0.065,0.277,0.236,56.152,15.869,-0.610,1
0.055,0.420,0.200,35.156,11.780,-2.502,1
0.105,0.536,0.166,20.874,-0.488,-6.042,1
0.147,0.661,0.022,1.160,-4.578,-5.188,1
0.160,0.728,-0.125,-11.475,0.916,4.333,1
0.117,0.773,-0.258,-18.677,16.968,13.916,1
0.025,0.790,-0.265,-14.404,20.630,16.418,1
0.016,0.807,-0.208,-8.301,11.047,9.033,1
0.039,0.832,-0.167,-7.874,5.676,5.676,1
0.063,0.844,-0.117,-13.794,1.343,4.272,1
0.065,0.842,-0.135,-27.588,4.272,7.568,1
0.021,0.794,-0.261,-41.565,2.808,11.169,1
-0.009,0.765,-0.353,-43.274,-2.136,9.460,1
-0.030,0.743,-0.359,-40.161,-3.723,2.502,1
0.007,0.711,-0.311,-39.246,-4.517,-5.066,1
0.033,0.666,-0.276,-45.471,-2.502,-9.094,1
0.068,0.706,-1.786,82.886,25.330,6.042,1
0.093,0.661,-1.854,90.881,19.226,5.432,1
0.135,0.579,-1.918,108.521,0.671,1.587,1
0.221,0.494,-1.917,127.747,-5.798,0.061,1
0.277,0.388,-1.875,143.494,-0.854,5.005,1
0.297,0.321,-1.812,156.921,3.235,9.827,1
0.321,0.291,-1.764,163.452,3.662,10.864,1
0.350,0.235,-1.637,174.866,5.127,15.076,1
0.370,0.199,-1.572,178.040,17.151,24.048,1
0.346,0.155,-1.566,177.368,34.607,35.461,1
0.232,0.083,-1.495,180.481,41.077,38.391,1
0.131,0.037,-1.325,191.345,45.532,36.804,1
0.088,0.016,-1.121,198.059,45.166,29.480,1
0.051,0.013,-0.987,196.899,51.025,26.978,1
0.025,-0.001,-0.919,193.298,62.622,25.513,1
-0.104,-0.031,-0.679,194.092,61.951,21.912,1
-0.167,-0.071,-0.335,193.176,31.372,9.705,1
-0.216,-0.108,0.031,188.904,-10.620,-11.963,1
-0.048,-0.019,0.336,174.927,-32.593,-31.128,1
0.051,0.039,0.465,133.362,-33.203,-28.259,1
0.107,0.116,0.471,85.022,-3.296,-9.521,1
0.080,0.151,0.469,37.415,30.212,10.864,1
-0.051,0.203,0.374,16.968,39.124,17.029,1
-0.125,0.287,0.183,-11.902,39.063,14.099,1
-0.110,0.405,0.046,-22.278,15.564,-1.099,1
-0.015,0.498,-0.015,-21.973,-4.211,-15.930,1
0.085,0.587,-0.037,-26.001,-13.855,-22.583,1
0.149,0.657,-0.113,-41.138,-7.874,-17.517,1
0.139,0.680,-0.249,-60.242,9.888,-2.747,1
0.028,0.640,-0.388,-73.364,25.024,9.583,1
-0.090,0.590,-0.479,-72.632,23.926,9.216,1
-0.129,0.558,-0.465,-59.265,5.554,-4.578,1
-0.084,0.509,-0.338,-56.030,-9.888,-21.362,1
0.031,0.488,-0.277,-70.496,-18.311,-25.208,1
0.119,0.445,-0.309,-89.111,-21.057,-20.508,1
0.110,0.402,-0.379,-106.323,-14.343,-15.808,1
0.073,0.336,-0.515,-113.098,-13.184,-15.808,1
0.075,0.260,-0.558,-113.831,-16.357,-21.179,1
0.159,0.280,-0.630,-124.329,-11.719,-22.705,1
0.228,0.271,-0.733,-139.099,-5.554,-14.832,1
0.206,0.229,-0.914,-151.794,0.549,-5.981,1
0.163,0.189,-1.062,-152.893,-0.305,-3.540,1
0.152,0.204,-1.146,-149.536,-6.104,-5.981,1
0.213,0.312,-1.237,-148.560,-7.446,-9.094,1
0.210,0.366,-1.348,-147.949,-5.249,-5.737,1
0.192,0.390,-1.436,-146.240,-2.869,-2.686,1
0.161,0.403,-1.548,-142.883,-0.732,-1.221,1
0.172,0.464,-1.583,-128.235,-5.188,-2.991,1
0.126,0.578,-1.518,-113.525,-6.653,-3.662,1
0.058,0.640,-1.442,-102.295,-8.606,-2.747,1
-0.007,0.663,-1.356,-90.698,-11.536,-3.601,1
-0.020,0.645,-1.303,-79.468,-16.907,-6.592,1
0.034,0.656,-1.253,-70.007,-17.944,-10.681,1
0.021,0.670,-1.220,-60.120,-15.381,-12.207,1
0.040,0.713,-1.123,-46.631,-11.108,-17.090,1
0.087,0.726,-1.008,-35.645,-13.611,-17.334,1
0.098,0.702,-0.925,-30.457,-15.686,-13.306,1
0.089,0.672,-0.924,-29.236,-14.038,-6.409,1
0.085,0.626,-0.955,-25.879,-9.766,-2.869,1
0.100,0.595,-0.961,-16.968,-7.507,-2.014,1
0.098,0.556,-0.960,-9.399,-6.653,1.343,1
0.080,0.531,-1.026,-6.165,-1.343,8.118,1
0.022,0.514,-1.078,-0.122,3.906,14.038,1
-0.019,0.531,-1.064,10.315,7.263,15.259,1
-0.002,0.589,-1.073,18.433,12.512,13.306,1
0.027,0.634,-1.099,29.297,9.033,15.076,1
0.051,0.718,-1.135,35.156,7.202,17.456,1
0.041,0.843,-1.209,42.419,12.329,19.897,1
0.058,0.936,-1.436,45.654,18.005,20.691,1
0.032,0.999,-1.568,61.890,21.484,22.949,1
0.015,0.996,-1.668,78.796,30.396,21.667,1
0.032,0.986,-1.822,92.896,33.691,18.677,1
0.028,0.892,-1.985,112.061,20.264,16.235,1
0.043,0.836,-2.045,137.695,9.216,8.667,1
0.107,0.697,-2.078,152.100,5.615,5.676,1
0.180,0.579,-2.013,175.415,2.747,2.136,1
0.230,0.425,-1.928,192.932,-2.014,2.869,1
0.239,0.277,-1.763,208.130,-3.357,3.662,1
0.265,0.139,-1.597,216.797,0.916,4.028,1
0.320,0.077,-1.432,217.346,10.376,6.592,1
0.338,0.046,-1.366,214.355,-0.183,15.991,1
0.275,-0.031,-1.160,207.825,-13.855,19.287,1
0.241,-0.094,-1.025,208.313,-16.602,25.879,1
0.170,-0.117,-0.848,207.886,-16.846,29.907,1
0.129,-0.166,-0.611,207.581,-4.700,25.146,1
0.113,-0.120,-0.365,199.524,17.883,15.930,1
0.123,-0.039,-0.074,182.983,31.799,11.841,1
-0.001,0.016,0.202,155.212,16.602,16.724,1
-0.091,0.098,0.295,113.281,15.686,11.292,1
-0.066,0.130,0.298,87.341,1.221,6.042,1
-0.058,0.166,0.270,74.036,-3.784,2.747,1
-0.015,0.258,0.215,55.176,-4.272,-2.869,1
0.028,0.396,0.230,40.405,6.165,-4.211,1
0.026,0.499,0.233,20.447,13.611,-1.831,1
0.015,0.555,0.137,0.610,13.306,1.587,1
-0.011,0.598,0.054,-9.094,2.014,4.150,1
-0.012,0.625,0.007,-16.541,6.287,2.747,1
0.005,0.669,0.004,-21.057,9.949,1.831,1
-0.013,0.696,0.015,-30.457,10.376,1.282,1
-0.008,0.670,-0.025,-42.419,0.671,0.122,1
0.021,0.629,-0.119,-52.246,-7.202,-0.854,1
0.026,0.566,-0.177,-58.960,-6.775,-1.404,1
0.011,0.481,-0.169,-63.049,-4.639,-4.089,1
0.050,0.393,-0.141,-69.702,-10.681,-9.949,1
0.097,0.344,-0.146,-83.557,-17.029,-13.428,1
0.148,0.296,-0.199,-101.990,-14.099,-15.076,1
0.152,0.240,-0.315,-120.056,-9.766,-13.428,1
0.160,0.210,-0.431,-133.423,-10.376,-10.864,1
0.143,0.223,-0.499,-145.630,-6.409,-7.874,1
0.154,0.238,-0.617,-164.307,3.113,-5.554,1
0.135,0.216,-0.816,-179.260,1.038,-3.540,1
0.120,0.221,-1.001,-182.312,-10.864,-5.432,1
0.146,0.299,-1.088,-179.321,-18.921,-11.658,1
0.230,0.420,-1.225,-179.565,-19.226,-16.235,1
0.313,0.554,-1.394,-175.964,-19.653,-13.245,1
0.273,0.641,-1.511,-171.448,-7.812,-5.188,1
0.171,0.692,-1.587,-161.621,4.150,3.662,1
0.082,0.709,-1.594,-145.020,-5.127,4.822,1
0.024,0.712,-1.569,-126.282,-24.597,-0.122,1
0.279,0.616,-1.641,121.521,13.000,12.512,1
0.296,0.589,-1.625,134.094,8.301,17.334,1
0.313,0.557,-1.628,139.343,13.245,20.691,1
0.255,0.486,-1.661,144.836,28.687,31.799,1
0.150,0.395,-1.701,156.372,33.203,34.790,1
0.137,0.355,-1.652,171.814,28.931,27.832,1
0.161,0.283,-1.600,179.199,25.635,23.132,1
0.197,0.210,-1.494,190.063,21.179,20.691,1
0.133,0.118,-1.392,194.702,30.518,25.146,1
0.022,0.029,-1.196,204.956,44.617,24.719,1
-0.023,-0.003,-1.070,208.557,52.612,21.301,1
-0.026,-0.064,-0.809,212.646,49.438,10.620,1
-0.075,-0.112,-0.459,205.688,15.137,-4.395,1
0.001,-0.142,-0.175,202.759,-7.751,-15.747,1
0.054,-0.147,0.102,183.105,-27.283,-21.057,1
0.077,-0.152,0.328,151.855,-12.573,-17.151,1
0.089,-0.108,0.391,129.456,26.428,-10.010,1
0.105,-0.027,0.462,82.397,33.447,-3.418,1
0.020,0.025,0.503,34.851,27.710,7.935,1
-0.017,0.095,0.375,-8.423,24.963,7.446,1
0.001,0.133,0.204,-30.945,8.484,2.625,1
0.015,0.208,0.128,-41.687,-5.920,-7.141,1
0.030,0.257,0.071,-50.293,-15.076,-15.625,1
0.084,0.357,0.051,-55.786,-14.404,-17.090,1
0.168,0.467,-0.036,-74.219,-2.625,-11.658,1
0.132,0.518,-0.192,-101.013,18.250,1.892,1
0.036,0.534,-0.419,-121.033,20.081,10.986,1
-0.031,0.514,-0.629,-120.422,-1.221,5.493,1
0.012,0.530,-0.715,-102.051,-31.006,-10.803,1
0.118,0.543,-0.679,-88.257,-32.837,-21.667,1
0.158,0.558,-0.621,-91.309,-14.221,-21.240,1
0.141,0.586,-0.646,-103.271,-6.226,-14.221,1
0.090,0.552,-0.748,-112.366,-13.611,-7.874,1
0.059,0.541,-0.877,-116.882,-20.630,-5.615,1
0.058,0.494,-0.982,-113.770,-21.362,-9.033,1
0.097,0.470,-0.981,-104.187,-21.606,-16.846,1
0.182,0.470,-0.962,-99.243,-20.386,-21.973,1
0.212,0.478,-0.985,-100.464,-14.893,-18.250,1
0.190,0.460,-1.058,-102.600,-10.010,-12.939,1
0.196,0.461,-1.099,-102.173,-9.338,-12.024,1
0.228,0.461,-1.110,-99.304,-11.292,-10.986,1
0.242,0.486,-1.148,-98.328,-12.634,-6.836,1
0.206,0.501,-1.188,-99.670,-6.531,0.427,1
0.131,0.510,-1.229,-101.074,0.244,6.836,1
0.108,0.554,-1.263,-97.351,1.221,6.958,1
0.084,0.587,-1.267,-92.163,-8.728,3.662,1
0.058,0.626,-1.190,-78.247,-12.268,0.977,1
0.079,0.687,-1.056,-68.787,-11.780,-1.526,1
0.074,0.701,-1.022,-71.533,-8.240,3.174,1
0.033,0.674,-1.080,-73.120,-8.911,6.897,1
0.024,0.664,-1.107,-62.073,-14.954,5.188,1
0.054,0.690,-1.061,-46.692,-19.653,1.831,1
0.082,0.707,-1.009,-38.879,-12.207,3.906,1
0.110,0.682,-1.054,-37.598,-2.808,7.385,1
0.128,0.647,-1.096,-31.677,-1.526,7.935,1
0.175,0.584,-1.113,-21.606,-5.005,5.371,1
0.209,0.543,-1.075,-10.803,-11.292,7.141,1
0.198,0.495,-1.033,-5.371,-5.737,14.038,1
0.137,0.453,-0.974,-2.075,5.310,19.653,1
0.109,0.422,-0.917,0.244,8.362,20.630,1
0.075,0.434,-0.903,0.671,6.348,20.020,1
0.048,0.456,-0.947,0.549,-0.122,15.320,1
0.069,0.516,-1.011,4.517,-5.737,9.338,1
0.085,0.599,-1.063,10.437,-1.953,7.690,1
0.076,0.690,-1.120,17.822,9.033,8.423,1
0.090,0.780,-1.181,29.053,11.230,8.911,1
0.086,0.821,-1.222,43.701,9.216,8.850,1
0.100,0.852,-1.334,53.711,10.071,9.338,1
0.101,0.902,-1.440,75.806,18.860,8.484,1
0.051,0.946,-1.418,96.558,27.527,9.888,1
0.033,0.941,-1.431,109.253,27.710,11.719,1
0.036,0.949,-1.538,117.371,11.414,14.771,1
0.047,0.901,-1.698,127.502,4.944,17.761,1
0.034,0.868,-1.766,145.020,11.902,16.907,1
0.042,0.801,-1.747,154.846,13.733,14.282,1
0.074,0.703,-1.696,171.936,12.207,9.827,1
0.149,0.636,-1.606,183.228,8.179,8.728,1
0.190,0.552,-1.534,186.951,9.277,13.184,1
0.219,0.463,-1.475,188.782,8.240,18.738,1
0.233,0.353,-1.351,193.848,6.165,21.667,1
0.226,0.258,-1.192,196.472,14.099,25.574,1
0.173,0.205,-1.095,192.932,28.992,27.466,1
0.092,0.119,-0.892,192.688,34.546,24.597,1
0.058,0.065,-0.654,191.284,37.170,13.367,1
0.064,0.040,-0.420,183.228,34.180,2.319,1
0.059,-0.028,-0.176,171.509,16.541,-1.587,1
0.037,0.003,0.077,140.686,2.319,-8.545,1
0.095,0.032,0.194,122.192,15.442,-0.671,1
0.010,0.082,0.343,84.473,22.034,0.793,1
-0.006,0.151,0.345,64.209,26.611,-1.587,1
-0.005,0.213,0.196,36.987,12.634,-4.944,1
0.038,0.280,0.119,24.475,-9.094,-12.146,1
0.096,0.383,0.071,13.611,3.967,-15.991,1
0.095,0.472,0.074,4.028,14.160,-12.268,1
0.075,0.554,0.083,-8.362,10.315,-8.362,1
0.068,0.607,0.057,-17.395,1.526,-4.944,1
0.080,0.630,0.028,-27.893,0.916,-3.601,1
0.081,0.643,0.010,-33.386,2.502,-1.892,1
0.091,0.662,-0.014,-43.518,2.441,-0.732,1
0.090,0.651,-0.092,-55.542,2.747,3.296,1
0.071,0.625,-0.158,-64.636,0.793,5.432,1
0.040,0.568,-0.208,-71.045,-6.226,2.014,1
0.101,0.547,-0.239,-76.660,-19.958,-2.014,1
0.101,0.551,-0.276,-90.088,-15.442,2.136,1
0.066,0.533,-0.379,-103.088,-2.869,8.301,1
0.031,0.502,-0.503,-107.971,-3.723,6.897,1
0.025,0.452,-0.565,-106.567,-14.343,-1.892,1
0.093,0.480,-0.583,-108.276,-21.118,-12.695,1
0.151,0.535,-0.649,-117.310,-16.663,-12.207,1
0.131,0.532,-0.765,-125.305,-7.507,-5.920,1
0.089,0.496,-0.832,-126.953,-4.883,-2.869,1
0.100,0.440,-0.882,-129.028,-9.521,-6.958,1
0.118,0.406,-0.936,-131.592,-16.174,-10.254,1
0.124,0.403,-1.008,-134.155,-10.071,-10.254,1
0.087,0.431,-1.066,-135.803,3.174,-9.033,1
0.092,0.475,-1.091,-131.958,8.789,-12.817,1
0.184,0.502,-1.108,-127.747,-6.226,-19.287,1
0.233,0.512,-1.160,-127.563,-23.621,-19.836,1
0.256,0.576,-1.226,-125.916,-25.574,-14.648,1
0.170,0.855,-1.604,61.157,22.644,22.522,1
0.177,0.837,-1.656,80.872,17.517,22.461,1
0.200,0.810,-1.702,89.966,19.653,20.813,1
0.191,0.749,-1.703,108.398,21.667,18.616,1
0.213,0.695,-1.659,123.779,19.409,18.188,1
0.208,0.596,-1.608,135.864,17.273,22.583,1
0.222,0.560,-1.607,139.343,17.822,24.048,1
0.268,0.494,-1.638,146.790,12.268,25.146,1
0.341,0.435,-1.641,157.959,1.282,24.841,1
0.384,0.363,-1.597,167.175,-0.732,30.334,1
0.396,0.329,-1.537,173.401,8.118,43.823,1
0.316,0.244,-1.510,174.683,15.564,50.537,1
0.193,0.140,-1.375,183.228,27.588,54.077,1
0.154,0.095,-1.161,194.641,30.640,47.913,1
0.121,0.043,-0.943,199.097,36.194,41.504,1
0.093,0.006,-0.673,201.843,43.945,35.583,1
0.042,-0.050,-0.519,201.782,46.387,16.663,1
-0.013,-0.084,-0.226,195.984,49.866,27.161,1
-0.014,-0.103,0.097,182.434,47.974,22.522,1
-0.144,-0.072,0.488,152.649,23.071,12.512,1
-0.123,-0.018,0.638,118.652,16.052,3.723,1
-0.090,0.059,0.682,68.970,-2.197,-5.127,1
-0.046,0.113,0.608,22.095,-1.282,-7.324,1
-0.036,0.146,0.500,-14.038,9.888,-4.211,1
-0.078,0.209,0.317,-26.672,10.071,-3.052,1
-0.127,0.272,0.185,-44.922,6.897,-9.827,1
-0.100,0.366,0.065,-57.922,-0.305,-20.752,1
-0.024,0.459,-0.046,-67.688,-9.644,-30.396,1
0.094,0.556,-0.224,-79.956,-8.972,-34.851,1
0.158,0.605,-0.402,-89.478,-6.531,-27.588,1
0.131,0.618,-0.482,-91.492,1.953,-17.456,1
0.030,0.585,-0.490,-91.553,10.925,-10.925,1
-0.025,0.570,-0.517,-96.008,10.498,-13.489,1
-0.003,0.564,-0.570,-95.459,-6.653,-22.522,1
0.070,0.568,-0.559,-91.675,-18.311,-31.860,1
0.140,0.557,-0.530,-92.896,-17.395,-34.607,1
0.162,0.524,-0.561,-102.783,-14.099,-30.701,1
0.126,0.465,-0.634,-112.732,-16.846,-27.832,1
0.157,0.467,-0.697,-120.483,-16.357,-28.748,1
0.167,0.466,-0.826,-127.380,-17.151,-27.344,1
0.157,0.450,-0.926,-125.549,-20.813,-28.992,1
0.211,0.450,-0.953,-118.225,-22.156,-34.851,1
0.307,0.489,-0.965,-117.798,-18.555,-34.424,1
0.295,0.474,-1.016,-123.596,-11.169,-23.193,1
0.228,0.475,-1.064,-129.456,-4.517,-16.235,1
0.199,0.478,-1.138,-129.944,-8.423,-13.977,1
0.179,0.484,-1.182,-125.610,-14.221,-15.747,1
0.184,0.511,-1.207,-119.324,-15.625,-18.433,1
0.217,0.507,-1.221,-110.718,-18.372,-22.583,1
0.261,0.523,-1.191,-103.149,-21.118,-24.719,1
0.253,0.545,-1.203,-99.915,-18.982,-21.729,1
0.200,0.557,-1.208,-95.642,-15.259,-18.616,1
0.219,0.593,-1.219,-87.036,-14.709,-19.348,1
0.264,0.601,-1.203,-74.951,-15.137,-18.433,1
0.286,0.615,-1.125,-62.622,-10.803,-16.907,1
0.258,0.618,-1.086,-55.969,-9.338,-12.024,1
0.254,0.624,-1.067,-47.607,-11.902,-6.409,1
0.207,0.623,-1.064,-41.016,-5.249,-1.892,1
0.170,0.610,-1.070,-31.738,-0.183,0.122,1
0.161,0.609,-1.047,-18.372,-2.686,-1.770,1
0.180,0.636,-1.013,-7.935,-1.221,-3.113,1
0.179,0.667,-0.989,-2.808,1.038,-1.526,1
0.227,0.681,-1.111,-3.296,3.784,2.075,1
0.258,0.743,-1.289,0.549,0.488,5.798,1
0.263,0.758,-1.431,15.625,5.066,12.939,1
0.232,0.775,-1.472,24.597,12.756,13.489,1
0.240,0.814,-1.567,44.617,28.015,13.977,1
0.245,0.872,-1.610,65.796,29.663,15.015,1
0.230,0.883,-1.667,80.017,19.226,21.423,1
0.247,0.808,-1.848,95.276,22.644,26.428,1
0.237,0.740,-1.949,111.938,24.414,24.109,1
0.206,0.636,-1.923,142.883,28.564,26.489,1
0.193,0.525,-1.799,167.603,30.273,23.926,1
0.221,0.506,-1.757,182.495,19.775,18.555,1
0.289,0.427,-1.724,188.232,11.230,19.287,1
0.361,0.320,-1.711,199.585,4.089,23.193,1
0.350,0.203,-1.590,213.196,10.193,29.602,1
0.283,0.114,-1.357,226.257,17.578,31.189,1
0.237,0.038,-1.123,231.628,19.043,28.320,1
0.234,0.030,-0.918,227.051,28.198,25.940,1
0.201,0.027,-0.756,215.027,35.950,25.879,1
0.124,-0.027,-0.513,205.078,19.897,26.367,1
0.088,-0.024,-0.391,194.275,11.841,17.883,1
0.118,-0.017,-0.221,188.293,8.789,15.869,1
0.088,-0.012,-0.021,164.673,1.099,11.475,1
0.077,0.025,0.142,138.855,9.949,8.301,1
0.072,0.067,0.232,109.009,16.113,9.827,1
0.044,0.125,0.310,78.674,15.259,8.911,1
0.015,0.224,0.280,47.363,9.583,8.301,1
0.001,0.266,0.232,33.264,6.775,5.432,1
0.003,0.366,0.154,14.465,2.991,2.930,1
0.044,0.491,0.080,-0.854,1.282,-1.282,1
0.069,0.592,0.001,-12.390,3.235,-1.099,1
0.046,0.661,-0.065,-21.912,4.822,0.977,1
0.037,0.734,-0.090,-30.701,5.676,-0.061,1
0.031,0.761,-0.147,-41.199,3.723,2.502,1
0.025,0.752,-0.227,-47.607,-0.488,1.160,1
0.046,0.753,-0.263,-46.997,-4.333,0.916,1
0.038,0.745,-0.261,-62.195,-0.122,0.427,1
0.017,0.711,-0.252,-50.598,2.747,-0.732,1
0.001,0.668,-0.236,-56.152,-0.061,-4.333,1
0.012,0.633,-0.268,-65.186,-10.010,-11.414,1
0.053,0.603,-0.337,-73.303,-22.156,-17.151,1
0.098,0.596,-0.379,-78.125,-25.940,-22.217,1
0.138,0.593,-0.395,-83.130,-24.719,-22.827,1
0.159,0.593,-0.447,-92.346,-19.470,-18.738,1
0.159,0.586,-0.527,-103.516,-13.611,-11.963,1
0.130,0.568,-0.633,-110.657,-10.376,-7.446,1
0.093,0.545,-0.708,-111.328,-9.888,-8.606,1
0.103,0.540,-0.751,-108.765,-11.414,-15.991,1
0.137,0.569,-0.759,-107.178,-11.597,-21.179,1
0.183,0.552,-0.795,-110.046,-7.629,-20.081,1
0.176,0.544,-0.825,-112.671,-10.986,-21.545,1
0.188,0.539,-0.859,-112.915,-19.104,-22.034,1
0.188,0.524,-0.912,-115.295,-24.719,-22.156,1
0.235,0.515,-0.982,-116.394,-18.494,-20.691,1
0.230,0.507,-1.011,-112.000,-12.939,-19.287,1
0.219,0.512,-1.011,-106.506,-11.169,-20.752,1
0.242,0.505,-1.011,-101.501,-17.517,-24.292,1
0.276,0.767,-1.615,32.532,8.118,14.832,1
0.264,0.775,-1.734,47.180,9.705,17.700,1
0.336,0.793,-1.837,55.664,30.029,18.738,1
0.386,0.753,-1.929,79.407,43.213,27.161,1
0.292,0.675,-1.906,110.657,23.193,31.982,1
0.380,0.584,-1.976,126.465,14.648,25.696,1
0.484,0.524,-1.987,138.794,12.146,24.780,1
0.481,0.461,-1.949,151.794,13.428,37.109,1
0.457,0.312,-1.852,171.021,28.870,41.809,1
0.397,0.220,-1.702,184.204,31.555,47.852,1
0.365,0.161,-1.563,192.932,28.687,47.180,1
0.356,0.066,-1.431,202.698,31.860,47.241,1
0.358,0.080,-1.349,205.505,36.072,48.645,1
0.317,0.063,-1.240,205.444,43.335,50.232,1
0.243,0.040,-1.135,207.214,41.016,52.551,1
0.142,-0.020,-0.977,209.595,42.908,46.692,1
0.107,-0.021,-0.772,213.989,48.279,38.208,1
0.095,-0.029,-0.667,213.257,53.101,35.767,1
0.069,-0.014,-0.452,206.909,60.730,32.898,1
-0.004,-0.039,-0.240,194.946,52.063,31.677,1
-0.064,-0.024,0.023,173.035,39.185,21.423,1
-0.093,-0.014,0.242,160.828,22.156,14.771,1
-0.127,-0.004,0.420,130.310,9.277,3.113,1
-0.070,0.074,0.562,99.792,7.141,-5.554,1
-0.032,0.124,0.625,49.622,10.559,-5.493,1
0.023,0.171,0.634,32.715,14.709,-2.563,1
-0.008,0.248,0.521,-13.672,19.226,2.808,1
-0.048,0.263,0.333,-42.847,5.127,5.005,1
-0.040,0.310,0.191,-57.617,-9.094,-1.404,1
-0.026,0.388,0.083,-69.031,-9.216,-6.958,1
-0.005,0.453,-0.044,-81.665,-5.676,-10.742,1
0.010,0.521,-0.163,-97.412,-1.892,-10.620,1
0.004,0.531,-0.374,-115.662,2.258,-6.470,1
-0.027,0.516,-0.582,-119.812,-4.089,-4.944,1
-0.076,0.499,-0.658,-109.131,-11.902,-13.306,1
-0.018,0.527,-0.617,-97.229,-19.104,-29.175,1
0.077,0.554,-0.594,-97.534,-23.193,-36.499,1
0.127,0.557,-0.650,-106.750,-28.809,-37.720,1
0.161,0.517,-0.766,-112.976,-33.508,-36.072,1
0.156,0.485,-0.803,-110.840,-34.058,-34.363,1
0.171,0.499,-0.784,-109.680,-25.146,-34.180,1
0.186,0.525,-0.804,-114.563,-17.883,-31.006,1
0.168,0.491,-0.904,-122.070,-15.137,-26.855,1
0.119,0.503,-0.947,-122.864,-22.400,-29.236,1
0.153,0.532,-0.978,-117.249,-26.917,-37.415,1
0.178,0.572,-0.946,-113.342,-25.513,-41.931,1
0.173,0.602,-0.876,-112.854,-22.034,-44.556,1
0.160,0.631,-0.890,-115.662,-16.724,-44.739,1
0.168,0.625,-0.994,-115.356,-26.245,-49.438,1
0.329,0.672,-1.055,-104.370,-50.110,-59.814,1
0.466,0.706,-1.123,-98.694,-53.345,-57.007,1
0.519,0.710,-1.149,-95.886,-35.339,-42.175,1
0.435,0.688,-1.148,-92.834,-14.465,-22.522,1
0.324,0.671,-1.164,-89.233,-6.042,-8.911,1
0.219,0.641,-1.177,-82.825,-12.573,-3.540,1
0.008,0.600,-1.214,-72.937,-17.517,-5.066,1
0.238,0.679,-1.245,-62.439,-19.958,-1.526,1
0.184,0.602,-1.284,-52.551,-4.456,6.714,1
0.014,0.614,-1.185,-38.757,9.766,8.179,1
0.097,0.641,-1.192,-27.771,18.372,4.211,1
0.068,0.680,-1.124,-22.644,9.888,0.610,1
0.157,0.727,-1.139,-13.855,-13.672,-2.869,1
0.188,0.769,-1.180,-7.202,-5.676,-1.831,1
0.321,0.896,-1.217,3.906,19.653,5.066,1
0.267,0.952,-1.219,14.587,13.550,16.052,1
0.281,1.026,-1.316,24.780,15.076,20.569,1
0.310,1.101,-1.473,38.940,24.536,24.902,1
0.340,1.081,-1.583,63.416,26.917,39.001,1
0.322,1.049,-1.672,86.121,27.222,46.875,1
0.279,0.989,-1.784,110.107,30.762,49.683,1
0.293,0.944,-1.831,134.705,40.161,49.255,1
0.289,0.834,-1.869,138.184,45.715,48.767,1
0.236,0.733,-1.798,164.734,48.035,46.875,1
0.286,0.618,-1.763,186.340,33.813,45.044,1
0.398,0.562,-1.744,201.477,17.517,44.800,1
0.426,0.459,-1.734,210.388,20.691,51.331,1
0.400,0.328,-1.639,223.450,26.855,54.382,1
0.308,0.215,-1.414,238.647,35.278,57.556,1
0.274,0.198,-1.310,239.990,56.152,52.490,1
0.262,0.185,-1.200,237.854,59.021,51.025,1
0.103,0.018,-1.031,235.474,50.720,44.922,1
0.024,-0.097,-0.680,244.873,39.063,26.733,1
0.151,-0.097,-0.318,245.972,30.945,12.024,1
0.126,-0.138,0.013,219.482,16.907,11.353,1
0.030,-0.170,0.260,186.584,24.963,15.320,1
-0.010,-0.212,0.377,155.701,12.390,9.644,1
-0.044,-0.202,0.587,137.573,4.456,1.587,1
0.041,-0.039,0.614,100.342,6.042,-3.723,1
0.055,0.101,0.514,51.147,20.935,-1.709,1
0.047,0.201,0.381,10.864,17.517,-1.465,1
0.039,0.277,0.182,-10.620,5.615,-2.747,1
0.048,0.403,0.113,-15.808,-1.221,-6.470,1
0.029,0.512,0.129,-25.146,-5.493,-12.695,1
0.061,0.589,0.075,-40.039,-11.963,-16.541,1
0.091,0.646,-0.041,-57.068,-21.362,-15.320,1
0.087,0.656,-0.188,-68.970,-21.606,-8.301,1
-0.004,0.648,-0.225,-70.679,-13.977,-5.493,1
-0.075,0.630,-0.205,-70.435,-13.245,-13.428,1
-0.090,0.585,-0.162,-69.519,-28.137,-28.320,1
0.010,0.584,-0.173,-73.608,-43.457,-44.128,1
0.105,0.583,-0.222,-85.205,-46.692,-49.561,1
0.165,0.577,-0.283,-99.060,-39.490,-47.913,1
0.167,0.545,-0.333,-111.023,-30.823,-43.457,1
0.128,0.506,-0.403,-121.216,-25.940,-41.626,1
0.108,0.479,-0.417,-125.122,-28.625,-49.866,1
0.142,0.506,-0.437,-128.235,-43.518,-60.791,1
0.321,0.540,-0.558,-137.878,-45.593,-56.335,1
0.387,0.605,-0.688,-148.254,-22.705,-40.039,1
0.314,0.584,-0.810,-154.419,-3.845,-27.649,1
0.152,0.522,-0.817,-147.888,-11.475,-38.025,1
0.172,0.544,-0.771,-138.794,-39.429,-57.251,1
0.367,0.613,-0.838,-141.846,-54.626,-56.274,1
0.444,0.636,-0.944,-148.865,-38.269,-41.138,1
0.402,0.636,-1.032,-152.161,-14.648,-23.193,1
0.261,0.578,-1.045,-141.602,-4.028,-19.592,1
0.231,0.600,-1.000,-130.188,-6.409,-30.457,1
0.279,0.632,-1.047,-125.000,-18.188,-36.987,1
0.397,0.701,-1.100,-123.657,-25.940,-33.142,1
0.433,0.743,-1.222,-119.019,-19.165,-19.226,1
0.482,-1.413,1.327,164.307,-8.118,-77.209,2
0.609,-1.452,1.733,155.090,-5.310,-55.054,2
0.561,-1.318,2.170,120.789,8.972,-25.757,2
0.459,-0.966,1.764,24.414,54.443,-23.437,2
0.362,-0.602,1.227,-30.762,53.711,-7.385,2
0.195,-0.323,0.908,-35.217,15.625,5.981,2
-0.025,-0.216,0.751,-27.283,4.517,12.085,2
-0.089,-0.142,0.713,-17.029,3.784,6.165,2
-0.046,-0.143,0.712,-2.563,-3.967,-2.441,2
0.038,-0.136,0.771,3.540,-5.432,-4.028,2
0.065,-0.178,0.837,8.850,-4.272,-3.357,2
0.061,-0.236,0.926,11.414,-7.385,-1.221,2
0.030,-0.280,1.021,14.221,-14.832,-1.953,2
0.054,-0.297,1.047,10.803,-4.761,-2.563,2
0.074,-0.347,1.072,7.202,3.723,-1.892,2
0.124,-0.396,1.140,3.113,6.165,-0.610,2
0.133,-0.433,1.153,-0.183,6.470,1.892,2
0.149,-0.520,1.200,-6.775,8.972,2.991,2
0.158,-0.613,1.201,-14.038,10.498,7.202,2
0.089,-0.689,1.229,-26.367,5.005,12.939,2
0.056,-0.765,1.081,-42.542,-7.385,17.273,2
0.073,-0.660,0.884,-49.438,-11.536,16.785,2
0.146,-0.533,0.733,-45.044,-3.540,14.771,2
0.186,-0.485,0.830,-24.109,-2.319,12.878,2
0.171,-0.534,0.892,-10.742,-4.639,13.367,2
0.148,-0.617,1.017,-6.958,-5.432,15.259,2
0.191,-0.604,1.011,-20.081,-1.709,17.212,2
0.158,-0.494,0.853,-44.250,3.967,27.649,2
0.080,-0.433,0.684,-47.791,1.404,34.058,2
-0.009,-0.301,0.696,-28.015,-4.822,31.311,2
0.023,-0.189,0.882,-6.897,-14.343,23.499,2
0.153,-0.102,1.205,1.465,-29.358,24.048,2
0.026,0.296,1.282,-23.621,-7.507,36.133,2
-0.074,0.706,0.821,-72.021,36.438,43.396,2
-0.188,1.035,0.241,-87.341,43.274,40.283,2
-0.213,1.219,0.057,-39.795,15.198,24.597,2
-0.268,1.213,0.143,-4.395,-10.559,5.188,2
-0.262,1.027,0.583,56.396,-0.916,-5.737,2
-0.100,0.786,1.116,77.637,12.939,-21.667,2
0.101,0.575,1.463,64.941,27.893,-27.100,2
0.260,0.422,1.483,33.203,25.085,-24.536,2
0.325,0.345,1.287,11.475,16.418,-15.198,2
0.351,0.263,1.147,7.751,9.766,-4.028,2
0.303,0.195,1.129,14.221,-0.977,3.723,2
0.277,0.150,1.150,15.869,-9.705,10.498,2
0.270,0.128,1.205,17.517,-13.794,12.695,2
0.249,0.178,1.240,5.737,-15.869,20.691,2
0.185,0.286,1.159,-6.592,-15.076,28.015,2
0.193,0.386,1.123,-7.874,-10.681,28.442,2
0.204,0.457,1.156,-4.089,-15.808,27.161,2
0.179,0.506,1.195,-3.479,-16.846,22.644,2
0.194,0.524,1.237,-13.794,-14.282,24.475,2
0.093,0.554,1.211,-23.376,-8.850,27.039,2
0.058,0.615,1.156,-35.767,0.916,24.231,2
0.047,0.684,1.124,-40.344,4.517,22.217,2
-0.029,0.676,1.123,-44.617,1.648,22.888,2
-0.193,0.584,1.156,-50.171,-0.183,24.353,2
-0.350,0.547,1.016,-60.669,0.488,15.991,2
-0.375,0.585,0.705,-67.688,-8.240,0.122,2
-0.415,0.579,0.530,-56.396,-19.653,-13.184,2
-0.417,0.366,0.266,-20.813,-19.531,-27.649,2
-0.317,-0.004,0.385,18.372,1.831,-32.288,2
-0.262,-0.423,0.711,29.053,39.490,-41.077,2
-0.165,-0.630,0.734,35.339,52.063,-51.147,2
0.044,-0.804,0.592,53.772,26.184,-71.899,2
0.286,-1.002,0.672,93.384,-8.911,-78.369,2
0.370,-1.195,0.997,127.258,-5.066,-76.355,2
0.573,-1.242,1.374,132.690,11.047,-73.242,2
0.759,-1.090,1.628,103.760,14.160,-60.120,2
0.646,-0.755,1.501,47.607,10.986,-31.738,2
0.263,-0.543,1.213,4.578,8.362,-5.432,2
0.093,-0.305,0.973,-13.733,8.667,0.244,2
0.035,-0.202,0.841,-22.156,6.897,1.404,2
0.010,-0.073,0.582,-20.996,7.385,1.343,2
0.063,-0.061,0.568,-5.798,0.732,-1.770,2
0.074,-0.102,0.751,15.320,-10.925,-3.906,2
0.064,-0.155,0.892,21.912,-8.301,-4.822,2
0.105,-0.159,0.963,19.653,2.380,-5.981,2
0.137,-0.192,1.028,15.137,3.967,-5.066,2
0.215,-0.204,1.035,12.085,3.174,-2.930,2
0.204,-0.267,1.093,9.766,6.165,0.427,2
0.189,-0.281,1.152,5.798,4.944,3.967,2
0.132,-0.299,1.180,2.197,2.686,7.385,2
0.137,-0.327,1.119,-9.033,5.615,8.301,2
0.155,-0.386,1.066,-14.709,10.437,9.338,2
0.242,-0.474,1.052,-15.320,5.737,9.521,2
0.251,-0.544,1.041,-15.625,-3.662,13.977,2
0.247,-0.618,1.005,-16.113,-13.977,17.578,2
0.251,-0.649,1.056,-22.156,-31.555,22.156,2
0.176,-0.653,0.988,-42.725,-38.330,33.752,2
0.079,-0.629,0.747,-58.472,-35.400,41.565,2
0.045,-0.613,0.701,-38.269,-38.086,40.283,2
0.001,-0.605,0.701,-33.386,-38.635,38.269,2
0.064,-0.644,0.857,-21.729,-28.564,32.654,2
0.116,-0.492,0.882,-28.259,-2.625,28.992,2
0.076,-0.287,0.800,-39.246,16.602,30.090,2
-0.078,-0.146,0.822,-29.602,8.972,30.457,2
-0.147,0.087,0.838,-19.348,6.042,21.667,2
-0.047,0.368,0.720,-17.578,15.869,14.709,2
0.009,0.682,0.695,-11.353,19.287,12.756,2
-0.183,0.905,0.795,9.338,14.587,11.047,2
-0.216,0.955,0.868,22.522,13.733,3.601,2
-0.261,1.046,0.926,25.330,15.442,-1.221,2
-0.128,1.032,0.947,31.006,23.315,-15.442,2
0.082,0.854,1.075,41.687,26.062,-26.978,2
0.273,0.622,1.292,48.279,28.687,-30.273,2
0.406,0.389,1.417,40.833,21.423,-23.682,2
0.424,0.260,1.355,18.921,22.522,-9.277,2
0.377,0.201,1.140,3.418,20.264,4.456,2
0.325,0.178,1.072,2.502,3.540,13.245,2
0.221,0.109,0.971,3.784,-5.005,15.808,2
0.147,0.052,0.997,12.329,-16.846,15.381,2
0.142,0.028,1.056,13.611,-19.653,15.686,2
0.113,0.008,1.075,7.324,-11.292,16.846,2
0.082,0.023,1.038,1.526,-5.859,14.404,2
0.100,-0.010,1.016,1.038,-7.812,10.620,2
0.119,-0.022,0.995,0.916,-4.761,7.751,2
0.174,-0.058,0.979,1.709,-2.075,7.141,2
0.191,-0.045,1.012,3.235,-0.244,6.653,2
-0.119,1.520,1.093,81.543,69.275,-25.452,2
-0.064,1.585,1.403,82.581,68.542,-28.870,2
0.011,1.616,1.504,73.059,66.650,-27.588,2
0.104,1.572,1.602,42.114,55.603,-22.095,2
0.156,1.408,1.509,5.859,32.471,-13.000,2
0.212,1.225,1.289,-28.320,14.343,-1.831,2
0.185,1.071,1.061,-41.321,-5.493,8.789,2
0.131,1.040,0.965,-41.260,-16.663,10.864,2
0.102,0.927,0.793,-32.898,-35.217,15.991,2
0.054,0.689,0.850,-12.268,-49.561,21.057,2
-0.043,0.521,1.077,-1.343,-45.471,24.048,2
-0.098,0.268,1.132,-19.409,-32.898,23.804,2
-0.016,-0.032,1.037,-34.485,-36.987,20.508,2
-0.076,-0.040,0.994,-18.616,-39.551,9.094,2
-0.014,-0.089,0.968,-16.785,-15.808,0.061,2
-0.059,-0.351,0.865,-15.747,-3.662,-3.296,2
-0.055,-0.491,0.784,8.240,0.244,-19.104,2
0.059,-0.405,0.881,35.645,-12.146,-29.358,2
0.003,-0.556,0.915,30.396,-2.075,-27.283,2
0.042,-0.792,0.971,24.353,13.672,-28.992,2
0.084,-0.895,1.047,35.583,0.977,-31.067,2
0.164,-0.945,1.122,44.434,-9.399,-36.072,2
0.251,-1.001,1.263,45.227,1.221,-33.569,2
0.339,-0.970,1.383,37.354,16.357,-30.396,2
0.387,-0.914,1.416,12.085,25.269,-17.639,2
0.379,-0.892,1.353,-4.150,23.621,-10.132,2
0.356,-0.856,1.198,-31.128,4.578,1.892,2
0.274,-0.811,0.990,-53.406,-16.296,16.724,2
0.173,-0.764,0.805,-58.899,-20.752,25.940,2
0.105,-0.660,0.698,-50.964,-19.104,29.724,2
0.119,-0.512,0.618,-41.321,-16.296,32.349,2
0.157,-0.369,0.531,-32.898,-13.550,37.415,2
0.128,-0.307,0.455,-19.653,-13.977,43.396,2
0.061,-0.265,0.505,4.395,-25.208,43.091,2
0.015,-0.202,0.667,26.184,-27.527,41.382,2
-0.038,0.026,0.813,35.278,-12.207,38.330,2
-0.151,0.117,0.855,35.461,14.709,29.846,2
-0.193,0.223,0.911,32.532,14.771,24.658,2
-0.149,0.187,0.979,33.569,15.320,12.329,2
-0.076,0.179,1.051,36.072,8.850,0.610,2
-0.046,0.245,1.065,32.593,19.348,-2.747,2
-0.055,0.406,1.030,33.997,39.368,-10.742,2
0.009,0.488,1.033,36.804,48.279,-17.944,2
-0.110,0.453,1.144,42.908,36.743,-17.395,2
-0.135,0.454,1.207,45.227,32.837,-24.414,2
-0.099,0.534,1.265,39.124,34.241,-27.283,2
-0.014,0.653,1.168,26.367,34.424,-31.006,2
0.108,0.723,1.115,23.804,29.663,-32.715,2
0.162,0.650,1.188,29.114,15.930,-26.367,2
0.148,0.590,1.303,30.396,4.333,-21.790,2
0.213,0.591,1.310,13.794,6.958,-14.404,2
0.182,0.543,1.154,-9.644,12.146,-0.977,2
0.177,0.527,1.053,-14.526,7.935,7.568,2
0.139,0.486,1.064,-7.812,-11.353,12.939,2
0.097,0.440,1.182,-4.761,-20.203,12.573,2
0.108,0.421,1.234,-10.315,-20.691,15.259,2
0.041,0.432,1.191,-24.780,-9.216,20.142,2
0.017,0.424,1.116,-31.738,-1.709,17.822,2
0.006,0.445,1.094,-26.489,-4.272,8.789,2
0.005,0.400,1.060,-24.719,-3.662,0.610,2
0.090,0.316,1.110,-26.245,-3.906,-1.648,2
0.073,0.267,1.124,-36.926,-5.615,0.977,2
0.061,0.239,1.080,-47.607,-0.549,-0.305,2
0.043,0.176,0.965,-48.279,0.793,-7.568,2
0.055,0.140,0.835,-39.124,-1.465,-12.329,2
0.024,0.075,0.747,-23.499,-13.611,-18.677,2
-0.047,-0.064,0.788,-11.292,-18.311,-17.090,2
-0.036,-0.231,0.833,-6.226,-0.061,-23.132,2
0.024,-0.325,0.812,-1.770,7.629,-31.189,2
0.042,-0.470,0.712,7.202,2.869,-35.461,2
0.116,-0.604,0.649,35.339,-4.028,-42.725,2
0.324,-0.707,0.936,64.331,-6.897,-40.100,2
0.221,-0.724,1.136,70.190,11.108,-30.029,2
0.237,-0.662,1.132,55.725,23.437,-29.358,2
0.241,-0.592,1.069,44.556,19.714,-24.292,2
0.173,-0.533,1.042,36.438,0.305,-16.663,2
0.192,-0.517,1.070,28.931,-14.404,-10.315,2
0.156,-0.449,1.107,23.254,-14.099,-7.263,2
0.112,-0.440,1.069,10.803,-6.531,-2.563,2
0.100,-0.440,1.034,2.686,-3.540,0.305,2
0.099,-0.451,1.002,-5.371,-7.874,3.174,2
0.127,-0.441,0.966,-11.047,-13.733,4.028,2
0.153,-0.472,0.921,-16.357,-13.916,7.446,2
0.184,-0.521,0.900,-14.648,-7.263,9.644,2
0.217,-0.619,0.900,-9.766,-1.770,13.672,2
0.204,-0.679,0.901,-2.869,-0.244,18.616,2
0.234,-0.708,0.942,1.709,-8.240,24.841,2
0.180,-0.687,0.967,-5.249,-22.400,34.973,2
0.107,-0.614,0.951,-15.076,-33.264,40.649,2
-0.037,-0.570,0.868,-23.682,-33.020,44.983,2
-0.098,-0.544,0.817,-19.897,-33.813,43.518,2
-0.144,-0.433,0.822,-15.930,-23.193,35.950,2
-0.125,-0.262,0.689,-11.902,-13.916,27.527,2
-0.039,0.001,0.645,-1.648,-8.057,20.447,2
-0.093,0.166,0.671,21.545,-2.258,17.456,2
-0.216,0.189,0.886,36.072,-2.991,14.526,2
-0.254,0.256,1.108,53.101,-1.526,1.648,2
-0.178,0.413,1.146,45.532,14.832,-10.071,2
-0.057,0.598,1.000,33.264,37.903,-20.813,2
0.090,0.649,1.004,39.673,45.410,-27.954,2
0.131,0.648,1.166,54.810,34.546,-29.114,2
0.214,0.634,1.307,51.575,31.067,-28.198,2
0.236,0.647,1.348,34.912,38.818,-23.621,2
0.250,0.701,1.300,27.344,43.335,-20.874,2
0.273,0.734,1.328,22.705,37.415,-12.634,2
0.218,0.729,1.370,14.893,20.264,-3.540,2
0.254,0.664,1.267,-1.404,7.202,3.418,2
0.264,0.633,1.251,-8.362,-0.977,11.169,2
0.233,0.558,1.293,-15.259,-4.822,21.790,2
0.181,0.536,1.333,-25.879,-13.123,28.503,2
0.154,0.530,1.295,-33.325,-15.503,29.907,2
0.151,0.479,1.184,-43.091,-14.771,31.738,2
0.065,0.480,1.217,-43.152,-14.221,32.837,2
-0.025,0.429,1.186,-48.889,-14.160,30.640,2
0.005,0.324,1.128,-51.941,-15.625,25.269,2
-0.065,0.218,1.209,-40.466,-18.921,19.775,2
-0.038,0.175,1.262,-40.161,-2.075,6.165,2
-0.036,0.135,1.123,-56.885,8.301,2.869,2
-0.089,0.109,0.851,-71.350,2.441,-2.441,2
-0.050,1.356,1.244,72.998,25.269,-34.180,2
0.089,1.558,1.437,63.721,41.931,-37.292,2
0.181,1.601,1.495,51.697,53.406,-32.898,2
0.235,1.536,1.568,26.001,49.133,-28.625,2
0.248,1.425,1.495,1.282,38.513,-22.095,2
0.320,1.254,1.350,-22.949,34.241,-13.367,2
0.317,1.167,1.266,-36.011,21.912,-1.343,2
0.251,1.047,1.098,-39.856,11.841,4.578,2
0.161,0.857,1.014,-34.119,-10.193,11.108,2
0.093,0.615,1.106,-18.005,-34.973,18.494,2
0.023,0.404,1.228,-19.958,-33.020,23.987,2
-0.063,0.217,1.185,-38.940,-18.738,26.245,2
-0.060,0.004,0.911,-56.702,-12.207,20.630,2
-0.001,-0.122,0.690,-43.457,-15.381,10.864,2
-0.054,-0.108,0.640,-17.639,-13.184,5.737,2
-0.137,-0.257,0.611,-5.554,-14.526,-13.000,2
-0.123,-0.527,0.710,14.771,-0.305,-6.348,2
-0.138,-0.708,0.821,41.199,4.700,-18.616,2
0.039,-0.755,0.944,57.373,0.488,-32.959,2
0.221,-0.854,1.089,54.504,2.930,-29.846,2
0.147,-0.941,1.167,51.331,16.541,-36.255,2
0.281,-0.800,1.221,50.537,25.452,-39.734,2
0.329,-0.678,1.202,42.419,16.357,-32.349,2
0.351,-0.610,1.193,34.912,10.498,-19.836,2
0.226,-0.440,1.154,12.146,3.967,-8.667,2
0.005,-0.336,0.993,-6.653,6.409,1.465,2
-0.041,-0.187,0.874,-12.207,9.399,-1.526,2
0.011,-0.090,0.772,-14.404,6.958,-4.700,2
0.045,-0.077,0.735,-4.639,-0.244,-2.197,2
0.010,-0.063,0.836,8.362,-9.399,-0.244,2
-0.006,-0.065,0.903,12.573,-9.888,0.305,2
0.046,-0.070,0.883,10.864,1.526,-1.953,2
0.095,-0.076,0.880,10.376,7.629,-2.319,2
0.096,-0.091,0.919,13.428,1.099,-1.526,2
0.106,-0.135,0.948,15.503,-2.502,-1.343,2
0.128,-0.177,1.006,16.663,-2.075,0.244,2
0.161,-0.219,1.057,10.620,2.686,4.639,2
0.067,-0.256,1.078,3.845,2.136,8.606,2
0.075,-0.332,1.143,2.075,-1.892,6.409,2
0.146,-0.419,1.180,-3.357,0.366,5.859,2
0.248,-0.528,1.158,-13.306,7.629,9.705,2
0.292,-0.682,1.143,-22.888,-0.122,19.836,2
0.235,-0.731,1.164,-30.701,-13.489,32.654,2
0.033,-0.787,1.156,-36.133,-16.846,38.513,2
-0.045,-0.833,1.016,-50.171,-15.686,38.513,2
-0.049,-0.816,0.878,-55.420,-13.550,36.194,2
-0.016,-0.674,0.777,-55.603,-11.780,30.823,2
0.082,-0.638,0.704,-45.349,-14.221,29.053,2
0.026,-0.574,0.817,-27.100,-15.442,30.701,2
0.015,-0.386,0.831,-24.048,-10.803,25.146,2
0.120,-0.018,0.706,-24.963,-15.381,16.846,2
0.199,0.237,0.595,-17.639,-14.587,18.677,2
-0.112,0.401,0.661,5.615,-8.545,27.405,2
-0.233,0.546,0.798,36.499,-5.005,15.686,2
-0.227,0.659,0.940,46.204,1.221,4.211,2
-0.187,0.777,0.966,45.471,11.719,-0.916,2
-0.156,0.780,1.027,48.157,31.860,-10.071,2
-0.108,0.766,1.214,60.669,34.180,-22.400,2
0.019,0.812,1.350,55.725,32.410,-28.687,2
0.112,0.794,1.304,35.339,40.161,-26.611,2
0.140,0.744,1.205,21.484,37.720,-21.851,2
0.136,0.637,1.171,18.250,27.344,-15.808,2
0.177,0.573,1.193,15.381,13.306,-9.888,2
0.172,0.563,1.204,7.507,0.061,0.183,2
0.138,0.538,1.128,1.221,-4.089,5.005,2
0.063,0.509,1.005,-5.371,-4.639,14.038,2
0.044,0.480,0.974,-3.418,-5.798,17.639,2
0.036,0.465,1.021,-1.038,-5.798,21.240,2
0.038,0.500,1.094,-2.991,-8.545,21.423,2
0.051,0.521,1.197,-13.000,-10.498,25.208,2
-0.049,0.557,1.138,-29.846,-9.033,28.076,2
-0.064,0.601,1.088,-36.682,-11.292,26.367,2
-0.112,0.674,0.961,-36.682,-15.137,20.996,2
-0.037,0.734,0.896,-26.611,-16.541,17.456,2
-0.148,0.720,0.992,-6.348,-18.127,9.766,2
-0.072,0.589,1.137,11.108,-14.343,-0.671,2
-0.101,0.533,1.382,4.211,-13.428,-4.456,2
-0.060,0.412,1.154,-36.438,-9.644,-5.798,2
-0.073,0.278,0.796,-47.791,-15.015,-9.521,2
-0.187,0.143,0.627,-19.592,-20.264,-17.883,2
-0.193,-0.108,0.611,20.874,-20.874,-34.790,2
0.029,-0.505,0.785,50.598,-16.663,-47.058,2
0.089,-0.784,1.152,58.105,8.789,-34.241,2
0.061,-1.040,1.208,45.349,46.265,-34.729,2
0.213,-1.081,1.107,43.091,35.828,-48.035,2
0.416,-0.999,0.992,54.016,22.705,-54.443,2
0.350,-0.920,1.077,58.533,24.475,-48.828,2
0.377,-0.845,1.142,54.932,30.151,-35.278,2
0.343,-0.679,1.189,35.583,13.611,-26.184,2
0.189,-0.511,1.103,7.446,-1.282,-9.766,2
0.081,-0.393,0.981,-8.728,-12.390,0.793,2
-0.023,-0.291,0.874,-14.648,-21.423,6.836,2
-0.062,-0.208,0.783,-17.029,-19.226,5.737,2
-0.120,-0.139,0.746,-15.076,-14.221,4.150,2
-0.034,-0.114,0.719,-10.620,-10.498,-0.671,2
-0.005,-0.093,0.751,-2.991,-5.249,-0.916,2
0.032,-0.097,0.799,2.625,0.366,-0.793,2
0.070,-0.122,0.844,6.042,-1.587,1.709,2
0.013,-0.133,0.946,7.690,0.061,2.625,2
0.005,-0.135,0.978,7.874,9.949,-0.366,2
0.049,-0.124,1.006,6.897,16.541,-2.319,2
0.168,-0.147,1.029,5.127,13.977,-2.625,2
0.190,-0.179,1.097,3.052,2.747,2.869,2
0.163,-0.272,1.106,-4.028,-3.052,10.010,2
0.137,-0.373,1.148,-7.629,-5.676,15.259,2
0.178,-0.458,1.158,-14.587,-2.197,15.747,2
0.193,-0.564,1.139,-22.644,-5.920,21.362,2
0.173,-0.637,1.068,-38.025,-10.742,26.672,2
0.054,-0.652,0.987,-45.593,-15.869,32.837,2
0.008,-0.690,0.935,-45.776,-12.451,32.715,2
0.002,-0.663,0.815,-45.105,3.723,30.457,2
0.023,-0.683,0.734,-43.823,28.259,28.748,2
0.056,-0.586,0.753,-29.663,13.428,28.687,2
0.046,-0.455,0.789,-23.865,-0.427,30.273,2
0.063,-0.265,0.773,-22.766,-4.639,29.175,2
0.004,-0.133,0.740,-16.541,-6.775,31.250,2
-0.065,-0.083,0.680,-3.845,1.770,29.297,2
-0.156,0.145,0.792,20.691,6.348,23.743,2
-0.189,0.419,0.831,37.659,22.705,12.268,2
0.663,-0.638,1.433,96.985,20.874,-49.072,2
0.629,-0.525,1.510,62.134,8.972,-20.386,2
0.363,-0.392,1.445,38.940,5.554,-10.254,2
0.181,-0.232,1.243,9.644,0.671,-2.625,2
0.080,-0.133,1.052,-6.592,-0.488,0.610,2
0.010,-0.082,0.873,-14.160,-3.540,1.953,2
-0.090,-0.067,0.770,-12.817,-9.216,3.052,2
-0.064,-0.069,0.733,-9.338,-11.169,-2.808,2
0.031,-0.055,0.728,1.343,-10.803,-3.967,2
0.121,-0.063,0.810,13.733,-5.249,-2.869,2
0.041,-0.090,0.958,20.142,-1.099,2.441,2
0.009,-0.095,1.006,19.531,-0.305,0.854,2
0.003,-0.088,1.042,16.235,0.244,-0.732,2
0.085,-0.091,1.003,10.376,4.944,-2.991,2
0.098,-0.114,1.059,11.292,10.681,-1.160,2
0.090,-0.137,1.125,8.423,14.526,0.366,2
0.100,-0.148,1.117,5.005,14.771,0.244,2
0.134,-0.152,1.114,0.183,8.423,0.977,2
0.159,-0.193,1.142,-4.883,-0.366,4.272,2
0.149,-0.251,1.208,-8.911,-2.686,7.019,2
0.197,-0.350,1.214,-16.968,4.578,8.606,2
0.236,-0.380,1.226,-20.508,9.338,14.099,2
0.265,-0.482,1.171,-33.203,8.606,16.907,2
0.310,-0.461,0.988,-50.110,4.395,23.071,2
0.162,-0.414,0.842,-52.307,-5.737,35.400,2
0.021,-0.481,0.817,-40.039,-8.423,39.978,2
-0.013,-0.576,0.857,-23.987,1.404,37.781,2
0.057,-0.663,0.992,-20.386,8.911,33.875,2
0.112,-0.745,0.985,-38.879,3.723,37.354,2
0.071,-0.727,0.809,-52.612,-8.179,39.978,2
0.060,-0.682,0.709,-46.814,-25.513,35.889,2
0.101,-0.508,0.570,-36.926,-26.733,32.471,2
0.138,-0.416,0.624,-13.794,-24.109,32.166,2
0.005,-0.225,0.765,0.305,-16.113,33.630,2
0.027,-0.104,0.686,-1.648,-4.761,28.992,2
0.017,0.207,0.674,10.376,-9.705,23.132,2
-0.003,0.666,0.653,22.949,-0.488,15.076,2
-0.108,0.929,0.607,39.124,19.043,5.066,2
-0.173,1.038,0.818,66.528,22.644,-6.042,2
-0.115,0.993,1.119,81.848,11.169,-17.212,2
-0.050,1.060,1.364,79.346,20.508,-25.391,2
0.094,1.056,1.419,71.594,34.851,-27.710,2
0.159,0.939,1.447,53.711,46.875,-25.208,2
0.200,0.675,1.466,47.852,31.250,-21.545,2
0.263,0.434,1.577,42.358,17.944,-16.907,2
0.254,0.248,1.613,19.043,10.010,-5.310,2
0.108,0.118,1.446,-10.559,1.831,9.766,2
-0.002,0.068,1.177,-28.870,-7.446,15.137,2
0.014,0.066,0.996,-30.579,-23.865,14.587,2
-0.017,0.053,0.875,-24.719,-32.593,15.808,2
0.013,0.047,0.857,-17.090,-23.132,12.817,2
0.044,0.065,0.855,-11.658,-17.456,11.108,2
0.053,0.130,0.914,-6.226,-9.338,10.986,2
0.003,0.202,1.014,-1.709,-9.399,11.414,2
-0.000,0.298,1.109,-3.418,-11.597,8.667,2
0.046,0.372,1.129,-10.376,-7.629,5.127,2
0.083,0.436,1.111,-16.541,0.000,2.197,2
0.114,0.474,1.075,-18.494,5.188,3.540,2
0.022,0.476,1.118,-12.451,-1.831,4.578,2
0.011,0.497,1.155,-5.371,-13.855,-1.465,2
0.032,0.539,1.198,-6.714,-15.686,-4.944,2
0.042,0.566,1.140,-17.456,-7.874,-4.456,2
0.012,0.565,0.968,-30.579,8.362,-0.671,2
-0.045,0.510,0.774,-28.870,16.724,-0.183,2
-0.007,0.405,0.788,-8.423,0.427,-5.371,2
-0.023,0.318,1.004,6.409,-19.714,-5.493,2
-0.096,0.229,1.041,1.221,-11.780,-3.723,2
-0.154,0.126,0.930,-11.963,5.310,-6.897,2
-0.201,0.076,0.794,-21.606,3.357,-11.414,2
-0.251,-0.045,0.580,-18.433,-9.583,-22.522,2
-0.152,-0.165,0.498,7.141,-15.869,-38.879,2
-0.071,-0.377,0.564,43.152,-12.207,-46.509,2
0.003,-0.555,0.731,67.871,1.038,-53.894,2
0.112,-0.685,0.800,81.299,12.878,-61.035,2
0.143,-0.734,0.809,81.665,13.977,-65.491,2
0.334,-0.833,0.746,84.473,12.512,-65.491,2
0.330,-0.868,0.850,99.182,4.150,-60.364,2
0.437,-0.874,1.119,112.000,12.878,-54.626,2
0.480,-0.728,1.415,107.056,8.484,-43.030,2
0.413,-0.584,1.459,69.641,5.066,-25.574,2
0.275,-0.428,1.323,30.762,5.249,-12.085,2
0.204,-0.371,1.139,6.409,9.766,-3.479,2
0.103,-0.312,1.047,-2.197,13.733,-1.587,2
0.066,-0.256,0.932,-9.644,15.930,-1.831,2
0.067,-0.211,0.883,-14.709,1.343,0.793,2
0.068,-0.219,0.822,-14.587,-16.052,4.883,2
0.022,-0.237,0.850,-6.348,-17.944,8.118,2
-0.002,-0.217,0.927,-0.610,-6.714,7.812,2
0.049,-0.208,0.907,-2.502,-3.174,5.798,2
0.073,-0.183,0.926,-1.709,-6.409,6.836,2
0.010,-0.197,0.923,-0.549,-5.432,8.667,2
0.007,-0.184,0.981,4.761,-0.183,4.639,2
0.076,-0.193,1.023,4.089,7.446,2.747,2
0.088,-0.203,1.011,0.427,12.329,3.784,2
0.065,-0.214,1.021,-0.366,11.475,3.906,2
0.067,-0.247,1.075,-1.282,9.216,3.723,2
0.095,-0.247,1.086,-7.874,9.705,4.089,2
0.147,-0.305,1.043,-14.282,6.348,6.531,2
0.174,-0.341,1.100,-14.526,2.502,9.705,2
0.198,-0.438,1.151,-20.386,4.028,13.916,2
0.201,-0.522,1.209,-29.846,11.292,18.738,2
0.282,-0.631,1.185,-45.593,16.235,24.048,2
0.309,-0.652,1.141,-54.504,14.893,43.396,2
0.297,-0.592,0.940,-72.632,4.395,38.879,2
0.235,-0.567,0.747,-75.928,-8.118,47.363,2
0.065,-0.541,0.750,-61.096,-17.334,53.345,2
0.023,-0.581,0.854,-46.936,-12.756,50.232,2
0.053,-0.636,0.936,-43.274,-5.371,44.312,2
0.101,-0.581,0.877,-46.875,-2.075,41.992,2
0.056,-0.476,0.788,-52.490,-7.263,42.786,2
-0.008,-0.283,0.704,-46.082,-11.841,36.743,2
0.024,-0.180,0.606,-33.691,-6.653,28.320,2
-0.074,-0.057,0.724,-11.780,-2.563,28.503,2
-0.159,0.154,0.856,0.854,-1.221,21.362,2
-0.129,0.448,0.759,0.671,10.071,8.606,2
-0.140,0.624,0.712,6.836,13.306,-6.836,2
-0.044,0.812,0.670,25.452,13.611,-14.343,2
0.026,0.826,0.859,51.880,12.756,-22.705,2
0.114,0.741,1.120,65.979,15.930,-25.757,2
0.506,-0.852,1.219,112.915,0.854,-59.326,2
0.496,-0.769,1.292,94.177,-4.333,-38.635,2
0.355,-0.550,1.293,77.881,-0.061,-28.320,2
0.232,-0.422,1.219,49.438,0.793,-15.930,2
0.139,-0.296,1.194,28.748,-5.127,-7.751,2
0.075,-0.235,1.083,9.521,-7.385,-2.441,2
0.027,-0.179,0.974,-4.272,-6.897,-0.305,2
0.001,-0.158,0.935,-5.432,-8.545,0.916,2
0.007,-0.176,0.945,-6.409,-8.545,-0.793,2
0.087,-0.161,0.937,-4.272,-2.686,-1.587,2
0.130,-0.163,0.926,-3.479,2.075,-0.610,2
0.135,-0.132,0.948,-2.441,2.014,3.540,2
0.037,-0.141,0.949,-2.686,-1.465,6.531,2
0.026,-0.144,0.956,-1.404,-4.089,3.662,2
0.084,-0.167,0.937,0.061,3.784,-0.610,2
0.151,-0.174,0.973,3.235,11.169,-1.343,2
0.177,-0.175,0.977,2.686,12.573,-0.366,2
0.144,-0.192,0.994,0.732,5.798,4.639,2
0.106,-0.245,1.069,1.160,2.502,4.944,2
0.164,-0.347,1.182,0.549,9.033,3.540,2
0.278,-0.458,1.242,-7.385,23.193,4.944,2
0.394,-0.533,1.187,-23.376,29.419,11.963,2
0.434,-0.546,1.117,-39.490,22.461,24.292,2
0.387,-0.542,0.956,-44.067,15.564,32.104,2
0.257,-0.597,0.799,-41.199,-1.953,43.030,2
0.198,-0.697,0.733,-21.973,-13.245,47.058,2
0.145,-0.771,0.884,-7.080,-15.869,53.711,2
0.069,-0.741,0.957,-14.282,-6.836,60.059,2
0.075,-0.666,0.874,-33.936,-3.052,60.059,2
0.013,-0.560,0.747,-45.776,-10.498,54.321,2
0.078,-0.409,0.704,-41.931,-27.832,45.715,2
-0.009,-0.234,0.742,-34.241,-30.518,47.913,2
-0.126,-0.039,0.767,-25.635,-17.334,39.124,2
-0.120,0.098,0.781,-20.508,-12.329,27.222,2
-0.117,0.223,0.709,-13.550,-13.000,14.954,2
-0.033,0.429,0.762,7.202,-4.944,0.610,2
-0.111,0.626,0.841,20.264,16.907,-11.658,2
-0.062,0.795,0.899,30.090,31.677,-20.935,2
0.128,0.779,0.944,32.593,39.429,-33.936,2
0.269,0.712,1.050,37.720,32.043,-32.959,2
0.204,0.686,1.176,38.452,27.344,-22.827,2
0.172,0.748,1.192,32.593,31.677,-19.165,2
0.152,0.765,1.180,32.532,29.358,-14.648,2
0.142,0.721,1.241,29.297,23.193,-5.737,2
0.107,0.572,1.270,28.687,19.043,-3.845,2
0.087,0.496,1.242,18.066,10.193,1.282,2
0.062,0.439,1.233,14.099,-0.732,5.676,2
0.020,0.399,1.257,11.719,-12.939,8.057,2
0.079,0.346,1.224,5.493,-15.137,6.775,2
0.172,0.295,1.266,0.916,-15.991,7.812,2
0.224,0.306,1.273,-12.817,-16.418,12.756,2
0.223,0.311,1.230,-25.208,-14.893,19.470,2
0.139,0.350,1.170,-28.137,-15.564,23.010,2
0.041,0.372,1.138,-29.358,-23.315,25.879,2
0.068,0.434,1.120,-26.733,-24.292,21.301,2
0.111,0.483,1.219,-22.766,-15.808,17.700,2
0.119,0.495,1.206,-29.602,-1.953,12.024,2
0.121,0.468,1.116,-31.738,1.892,8.301,2
0.172,0.452,1.063,-24.048,0.183,2.197,2
0.180,0.465,1.061,-18.921,-0.427,-0.244,2
0.233,0.402,1.074,-18.188,-3.845,-3.845,2
0.256,0.276,1.174,-25.330,-10.742,3.540,2
0.181,0.235,1.045,-36.926,-3.662,4.333,2
-0.006,0.270,0.921,-35.522,-3.479,4.639,2
-0.135,0.289,0.725,-34.912,-15.930,-3.784,2
-0.174,0.236,0.545,-29.236,-23.193,-14.893,2
-0.152,0.024,0.504,-24.658,-16.541,-16.418,2
-0.222,-0.200,0.448,-10.254,-3.845,-20.508,2
-0.189,-0.330,0.385,18.860,2.380,-37.781,2
-0.163,-0.610,0.404,52.185,-9.338,-56.519,2
0.131,-0.839,0.682,78.857,-6.165,-62.744,2
0.150,-0.947,0.929,91.675,7.751,-56.458,2
0.312,-0.916,1.018,88.989,30.457,-61.890,2
0.363,-0.845,1.085,95.520,26.489,-58.105,2
0.458,-0.713,1.244,94.238,18.616,-52.429,2
0.411,-0.545,1.318,80.017,3.540,-36.743,2
0.347,-0.372,1.288,51.697,2.014,-21.545,2
0.150,-0.241,1.161,24.170,-3.418,-7.812,2
-0.010,-0.197,1.052,6.531,-7.263,-2.563,2
-0.038,-0.184,0.977,3.479,-3.296,-5.981,2
0.066,-0.169,0.938,1.221,0.732,-10.681,2
0.183,-0.163,0.888,-1.831,-2.808,-9.766,2
0.148,-0.151,0.918,-2.686,-6.775,-1.953,2
0.119,-0.146,0.919,-0.549,-3.235,0.854,2
0.144,-0.124,0.957,2.991,0.366,1.709,2
0.157,-0.126,0.968,2.747,-0.916,2.075,2
0.091,-0.131,0.942,-0.977,-5.249,5.188,2
0.046,-0.141,0.927,-0.122,-6.348,4.578,2
0.046,-0.169,1.000,6.104,0.671,1.221,2
0.118,-0.225,1.056,6.592,12.085,-1.343,2
0.228,-0.295,1.118,4.578,11.719,-0.061,2
0.283,-0.391,1.189,-3.235,3.784,5.493,2
0.239,-0.444,1.188,-19.165,0.854,14.832,2
0.190,-0.408,1.102,-36.621,7.935,20.874,2
0.198,-0.395,1.009,-50.598,11.047,26.123,2
0.255,-0.372,0.864,-50.598,6.775,28.442,2
0.195,-0.422,0.824,-41.138,-8.057,38.696,2
0.089,-0.502,0.946,-25.208,-19.775,44.312,2
0.018,-0.581,0.998,-22.644,-23.743,44.922,2
-0.042,-0.417,0.992,-30.151,-14.160,41.199,2
-0.040,-0.394,0.869,-43.396,-13.367,38.452,2
0.006,-0.334,0.802,-36.316,-10.498,29.846,2
0.112,-0.378,0.804,-20.081,-7.568,23.682,2
0.203,-0.434,0.970,-7.874,-14.282,23.315,2
0.170,-0.352,0.980,-17.578,-9.705,27.832,2
0.093,-0.304,0.786,-30.823,0.610,29.175,2
0.044,-0.100,0.757,-21.912,-1.038,24.597,2
-0.029,0.006,0.779,-7.019,0.610,16.968,2
-0.038,0.066,0.776,13.855,9.949,6.775,2
0.054,0.199,0.716,4.456,13.672,1.282,2
0.055,0.476,0.748,15.686,20.264,-3.784,2
0.044,0.707,0.810,29.907,36.987,-11.841,2
-0.059,0.772,0.855,39.734,37.354,-20.386,2
0.072,0.890,0.999,51.636,28.687,-34.668,2
0.226,0.926,1.108,51.758,39.307,-38.635,2
0.255,0.890,1.169,48.767,44.861,-31.189,2
0.263,0.785,1.259,48.035,43.579,-28.992,2
0.267,0.648,1.344,46.021,29.846,-22.949,2
0.292,0.562,1.415,37.720,13.611,-17.761,2
-0.667,1.381,0.492,65.125,-34.546,-27.649,3
-0.563,1.432,0.516,60.852,-49.866,-33.997,3
-0.468,1.443,0.571,61.279,-63.354,-39.551,3
-0.430,1.410,0.603,59.570,-63.416,-59.021,3
-0.356,1.370,0.641,50.537,-53.711,-51.453,3
-0.269,1.331,0.627,38.513,-49.133,-56.335,3
-0.226,1.317,0.547,26.978,-45.044,-56.030,3
-0.197,1.327,0.508,24.902,-49.194,-55.725,3
-0.154,1.322,0.552,22.949,-56.641,-55.847,3
-0.054,1.297,0.611,20.691,-57.861,-56.274,3
0.100,1.293,0.696,8.118,-55.298,-55.481,3
0.179,1.293,0.633,-8.606,-54.810,-49.194,3
0.242,1.299,0.504,-19.653,-53.589,-44.128,3
0.255,1.303,0.412,-22.095,-49.561,-41.260,3
0.340,1.277,0.423,-20.813,-44.983,-38.269,3
0.408,1.225,0.549,-22.461,-49.500,-27.161,3
0.349,1.194,0.567,-38.025,-43.884,-14.465,3
0.311,1.176,0.502,-47.607,-34.424,-10.132,3
0.266,1.127,0.381,-56.030,-30.945,-11.597,3
0.291,1.105,0.303,-51.514,-30.884,-13.733,3
0.301,1.055,0.268,-42.725,-28.809,-13.245,3
0.280,1.007,0.308,-37.598,-22.339,-8.911,3
0.237,0.946,0.302,-39.551,-13.794,-4.333,3
0.217,0.900,0.241,-44.128,-5.798,-4.028,3
0.234,0.886,0.199,-43.579,0.549,-2.258,3
0.218,0.866,0.164,-43.396,10.071,0.793,3
0.220,0.860,0.174,-42.236,8.728,2.197,3
0.182,0.833,0.201,-38.818,6.409,5.859,3
0.208,0.806,0.174,-37.720,22.095,4.150,3
0.239,0.803,0.101,-33.508,30.945,5.676,3
0.245,0.803,0.047,-23.682,28.748,11.292,3
0.180,0.774,0.124,-12.390,27.161,19.287,3
0.134,0.755,0.247,-13.916,30.640,21.790,3
0.157,0.761,0.257,-24.292,37.231,21.484,3
0.218,0.761,0.222,-30.396,39.734,29.907,3
0.152,0.755,0.134,-34.973,36.072,34.546,3
0.033,0.738,0.087,-31.250,32.043,40.161,3
-0.014,0.754,0.080,-25.696,27.893,36.560,3
0.005,0.740,0.059,-24.597,36.377,30.334,3
-0.008,0.730,0.066,-22.644,52.734,29.846,3
-0.083,0.715,0.092,-19.409,59.143,33.081,3
-0.120,0.704,0.108,-16.418,51.453,32.715,3
-0.154,0.699,0.131,-15.869,45.105,31.250,3
-0.136,0.673,0.125,-17.395,33.447,27.466,3
-0.103,0.670,0.110,-19.287,31.372,26.489,3
-0.118,0.661,0.063,-21.423,38.574,31.067,3
-0.172,0.643,0.031,-18.738,40.588,34.851,3
-0.321,0.611,0.053,-11.475,35.400,36.194,3
-0.329,0.616,0.071,-10.803,47.180,27.466,3
-0.312,0.615,0.033,-13.611,47.729,19.775,3
-0.323,0.613,0.023,-13.977,50.049,17.090,3
-0.214,0.621,-0.010,-9.094,51.147,18.982,3
-0.313,0.617,0.018,-1.221,50.293,24.414,3
-0.468,0.613,0.088,3.906,49.194,23.132,3
-0.480,0.653,0.109,4.028,36.682,14.954,3
-0.401,0.642,0.015,0.610,34.363,10.986,3
-0.385,0.623,-0.041,5.615,42.847,9.766,3
-0.417,0.632,0.030,16.846,41.565,10.864,3
-0.562,0.687,0.107,22.339,32.227,11.597,3
-0.675,0.736,0.211,25.085,19.714,10.071,3
-0.682,0.750,0.210,21.912,16.968,1.648,3
-0.556,0.743,0.094,19.775,35.034,-13.184,3
-0.449,0.750,0.049,25.635,52.185,-25.696,3
-0.396,0.781,0.146,36.438,45.776,-26.428,3
-0.560,0.795,0.271,41.565,20.569,-12.878,3
-0.611,0.777,0.280,39.978,-9.338,-9.399,3
-0.622,0.782,0.253,40.222,-6.897,-23.621,3
-0.423,0.828,0.160,39.368,3.540,-34.912,3
-0.231,0.895,0.071,42.603,26.794,-44.128,3
-0.215,0.897,0.088,56.396,26.428,-31.616,3
-0.365,0.889,0.294,73.242,-17.212,-6.836,3
-0.551,0.927,0.426,68.359,-32.410,0.610,3
-0.519,1.067,0.359,53.223,-20.325,-11.780,3
-0.452,1.117,0.246,50.049,-7.141,-21.973,3
-0.428,1.124,0.349,63.293,-12.939,-21.118,3
-0.473,1.096,0.600,72.205,-27.222,-14.954,3
-0.532,1.158,0.656,64.819,-34.668,-11.230,3
-0.553,1.193,0.576,52.917,-39.063,-16.174,3
-0.550,1.252,0.552,47.424,-42.908,-26.917,3
-0.453,1.249,0.527,44.922,-44.189,-32.227,3
-0.462,1.231,0.573,41.626,-44.128,-32.349,3
-0.415,1.271,0.566,37.292,-50.720,-34.485,3
-0.365,1.291,0.546,30.579,-47.119,-38.269,3
-0.280,1.291,0.544,25.269,-49.316,-37.415,3
-0.322,1.277,0.541,21.179,-56.030,-31.006,3
-0.360,1.284,0.510,16.602,-63.049,-32.349,3
-0.276,1.286,0.478,13.672,-59.570,-41.748,3
-0.166,1.293,0.564,15.503,-59.875,-44.006,3
-0.111,1.312,0.656,10.437,-61.340,-42.419,3
-0.076,1.334,0.662,-2.075,-59.692,-39.917,3
-0.076,1.328,0.597,-13.672,-66.528,-36.377,3
0.035,1.300,0.529,-20.935,-67.444,-37.109,3
0.124,1.278,0.497,-26.184,-67.078,-37.415,3
0.184,1.253,0.445,-30.151,-63.477,-32.227,3
0.173,1.225,0.446,-33.264,-61.768,-26.184,3
0.153,1.217,0.449,-37.720,-56.152,-24.780,3
0.134,1.173,0.436,-39.429,-46.692,-29.236,3
0.213,1.148,0.359,-39.612,-43.213,-46.814,3
0.312,1.106,0.313,-35.828,-37.109,-31.433,3
0.368,1.078,0.476,-33.691,-28.137,-22.339,3
0.308,1.053,0.499,-45.532,-19.470,-13.000,3
0.290,1.015,0.388,-56.763,-21.179,-11.780,3
0.343,1.006,0.248,-57.251,-15.869,-13.611,3
0.385,0.979,0.241,-46.326,-13.000,-5.737,3
0.311,0.933,0.312,-42.419,-6.409,-0.549,3
0.288,0.911,0.339,-46.570,-1.465,-0.244,3
0.291,0.887,0.309,-53.223,6.958,-0.854,3
0.323,0.850,0.206,-58.044,22.156,1.770,3
0.307,0.826,0.130,-54.077,18.982,7.568,3
0.285,0.814,0.120,-49.500,11.841,13.550,3
0.240,0.794,0.138,-41.382,12.390,16.113,3
0.187,0.755,0.124,-40.894,24.780,15.991,3
0.167,0.712,0.045,-37.720,38.147,16.296,3
0.162,0.695,0.001,-28.381,48.035,16.846,3
0.169,0.691,0.053,-18.860,44.067,19.897,3
0.156,0.683,0.095,-18.677,43.945,24.353,3
0.124,0.665,0.088,-20.813,44.617,31.860,3
0.045,0.665,0.054,-20.996,45.898,33.936,3
-0.079,0.657,0.012,-18.250,48.157,34.302,3
-0.514,1.354,0.759,71.777,-47.119,-22.217,3
-0.477,1.464,0.608,50.903,-48.706,-23.621,3
-0.471,1.570,0.653,53.650,-57.922,-25.391,3
-0.460,1.680,0.778,56.396,-54.321,-33.447,3
-0.306,1.519,0.975,38.818,-35.095,-53.284,3
-0.188,1.332,0.684,0.244,-35.156,-49.255,3
-0.240,1.243,0.295,-11.658,-57.068,-32.349,3
-0.334,1.215,0.204,1.648,-71.777,-26.917,3
-0.338,1.201,0.258,10.437,-76.843,-30.457,3
-0.302,1.165,0.429,17.456,-68.115,-42.603,3
-0.151,1.187,0.518,9.583,-52.856,-50.415,3
-0.053,1.244,0.506,-1.770,-56.335,-41.809,3
-0.089,1.280,0.484,-10.254,-79.590,-27.527,3
-0.117,1.284,0.448,-13.916,-79.956,-24.536,3
-0.115,1.293,0.379,-19.470,-71.777,-32.227,3
0.028,1.306,0.411,-20.264,-54.504,-44.006,3
0.207,1.317,0.488,-20.447,-50.110,-41.870,3
0.252,1.330,0.575,-25.635,-54.688,-29.907,3
0.206,1.303,0.508,-39.368,-50.720,-24.780,3
0.275,1.292,0.378,-48.340,-42.358,-29.785,3
0.315,1.277,0.313,-48.889,-36.072,-29.968,3
0.400,1.235,0.265,-43.823,-34.729,-26.428,3
0.375,1.153,0.303,-36.926,-33.752,-18.311,3
0.390,1.100,0.415,-36.926,-28.015,-13.611,3
0.409,1.048,0.445,-48.706,-10.742,-8.484,3
0.380,1.007,0.333,-63.538,-1.221,-4.700,3
0.294,0.945,0.215,-63.477,-5.615,-1.953,3
0.294,0.926,0.120,-54.321,1.648,-2.319,3
0.298,0.887,0.088,-47.913,9.827,-2.441,3
0.320,0.822,0.109,-33.325,22.583,-1.160,3
0.313,0.800,0.266,-23.560,24.658,6.470,3
0.258,0.781,0.395,-34.302,25.330,14.282,3
0.238,0.743,0.329,-54.871,28.259,14.832,3
0.239,0.699,0.173,-64.026,32.043,15.625,3
0.225,0.705,0.076,-57.312,30.762,18.127,3
0.141,0.693,0.040,-45.288,32.410,22.278,3
0.120,0.675,0.061,-39.124,32.837,23.743,3
0.128,0.622,0.134,-32.959,32.288,24.170,3
0.134,0.559,0.170,-36.804,46.936,24.658,3
0.105,0.529,0.145,-44.128,62.073,21.667,3
0.094,0.492,0.051,-47.424,72.021,23.193,3
0.066,0.492,-0.007,-43.030,65.674,25.818,3
0.026,0.484,-0.022,-37.048,53.223,32.349,3
-0.042,0.490,-0.054,-35.034,46.875,35.095,3
-0.135,0.479,-0.091,-31.555,37.170,40.771,3
-0.247,0.483,-0.078,-26.794,31.006,43.152,3
-0.299,0.467,-0.052,-24.170,38.086,37.537,3
-0.271,0.517,-0.074,-25.269,51.453,29.663,3
-0.237,0.527,-0.146,-25.146,55.725,27.527,3
-0.272,0.508,-0.180,-17.700,55.115,32.471,3
-0.362,0.504,-0.142,-7.629,57.800,34.973,3
-0.406,0.538,-0.115,-4.333,55.969,29.541,3
-0.423,0.559,-0.125,-1.282,53.101,26.611,3
-0.458,0.590,-0.157,3.906,59.387,24.231,3
-0.498,0.590,-0.135,14.832,56.091,21.912,3
-0.536,0.626,-0.084,24.841,45.166,15.564,3
-0.512,0.611,-0.035,26.672,43.518,11.353,3
-0.444,0.616,-0.047,29.785,55.054,2.014,3
-0.378,0.694,-0.062,32.349,61.340,-4.333,3
-0.457,0.787,-0.029,35.156,49.927,2.075,3
-0.564,0.763,0.042,40.588,26.672,9.460,3
-0.628,0.698,0.105,45.532,21.912,6.531,3
-0.647,0.692,0.167,48.340,35.645,-9.644,3
-0.575,0.708,0.188,46.936,44.800,-18.860,3
-0.612,0.760,0.175,48.401,56.091,-26.306,3
-0.661,0.787,0.226,57.068,37.842,-26.184,3
-0.663,0.787,0.344,61.707,12.878,-25.391,3
-0.630,0.801,0.312,56.396,4.822,-31.372,3
-0.449,0.881,0.213,50.232,12.329,-44.617,3
-0.346,0.976,0.181,57.983,27.588,-47.485,3
-0.350,0.984,0.342,72.510,10.071,-33.386,3
-0.372,0.966,0.452,76.599,-18.127,-14.954,3
-0.504,0.982,0.530,72.510,-23.010,-11.230,3
-0.553,1.092,0.484,65.308,-25.391,-14.587,3
-0.526,1.193,0.416,65.552,-13.428,-22.095,3
-0.602,1.245,0.502,72.815,-10.986,-22.705,3
-0.549,1.248,0.695,75.256,-31.189,-21.423,3
-0.532,1.312,0.761,61.707,-38.147,-16.479,3
-0.569,1.355,0.626,45.105,-42.358,-13.428,3
-0.581,1.378,0.538,37.903,-56.030,-13.184,3
-0.636,1.380,0.577,36.743,-69.519,-13.062,3
-0.634,1.370,0.592,31.738,-67.566,-19.897,3
-0.546,1.404,0.607,23.926,-64.392,-32.043,3
-0.458,1.379,0.502,11.536,-57.678,-42.969,3
-0.420,1.354,0.415,8.789,-52.917,-50.964,3
-0.439,1.351,0.422,9.888,-49.561,-63.599,3
-0.300,1.329,0.506,7.874,-39.856,-83.496,3
0.042,1.339,0.572,-0.854,-46.875,-88.501,3
0.175,1.341,0.572,-10.071,-59.204,-72.815,3
0.278,1.337,0.553,-14.771,-63.599,-61.401,3
0.219,1.321,0.454,-26.794,-64.941,-45.959,3
0.204,1.312,0.329,-35.645,-59.143,-42.908,3
0.189,1.316,0.249,-36.865,-53.345,-41.443,3
0.321,1.276,0.358,-30.457,-56.152,-40.527,3
0.383,1.238,0.483,-31.372,-56.396,-33.569,3
0.447,1.207,0.479,-42.419,-48.401,-28.870,3
0.523,1.177,0.399,-48.889,-38.940,-23.926,3
0.532,1.102,0.437,-49.255,-38.452,-13.428,3
0.513,1.060,0.435,-49.683,-26.855,-10.803,3
0.531,1.008,0.402,-49.866,-16.418,-9.583,3
0.512,0.958,0.386,-49.744,-10.010,-2.930,3
0.515,0.880,0.431,-53.711,-9.583,6.836,3
0.456,0.836,0.421,-58.044,9.644,17.395,3
0.384,0.785,0.322,-71.899,4.272,18.066,3
0.362,0.754,0.162,-78.735,7.996,19.775,3
0.259,0.751,0.055,-73.364,11.169,21.301,3
0.203,0.727,-0.018,-63.232,17.395,22.400,3
0.167,0.686,0.031,-52.124,17.212,24.780,3
0.137,0.670,0.086,-48.157,19.592,26.001,3
0.088,0.649,0.058,-52.551,25.818,25.818,3
0.079,0.651,0.016,-55.725,31.250,23.071,3
0.093,0.641,-0.045,-55.176,34.729,21.790,3
0.077,0.643,-0.115,-49.133,46.265,25.330,3
0.015,0.654,-0.134,-35.828,42.969,29.907,3
0.002,0.628,-0.117,-26.855,36.682,33.203,3
-0.054,0.599,-0.108,-23.132,43.335,32.166,3
-0.074,0.582,-0.100,-21.912,54.443,27.832,3
-0.155,0.575,-0.101,-17.456,57.556,29.358,3
-0.217,0.588,-0.087,-7.812,51.270,29.846,3
-0.690,1.219,0.518,68.237,-13.794,-28.137,3
-0.647,1.277,0.416,65.063,-7.263,-31.189,3
-0.606,1.327,0.458,72.388,-12.695,-28.076,3
-0.599,1.338,0.639,79.529,-26.001,-17.700,3
-0.627,1.343,0.812,70.068,-39.307,-12.268,3
-0.615,1.423,0.740,48.767,-44.678,-18.005,3
-0.624,1.655,0.624,39.429,-39.246,-27.283,3
-0.542,1.584,0.767,34.180,-25.696,-45.959,3
-0.410,1.301,0.663,6.836,-20.142,-46.814,3
-0.451,1.139,0.395,-11.108,-43.457,-27.100,3
-0.559,1.098,0.260,-12.146,-66.467,-17.395,3
-0.523,1.111,0.282,-4.333,-78.491,-28.870,3
-0.445,1.125,0.378,-2.808,-70.313,-46.387,3
-0.240,1.173,0.443,-9.705,-62.622,-55.603,3
-0.175,1.200,0.351,-19.165,-65.674,-44.983,3
-0.195,1.241,0.316,-21.423,-67.871,-36.621,3
-0.219,1.290,0.269,-20.447,-69.763,-36.133,3
-0.114,1.336,0.323,-14.832,-72.144,-43.091,3
-0.030,1.354,0.459,-13.977,-62.744,-51.086,3
0.156,1.366,0.540,-23.865,-50.171,-55.054,3
0.211,1.363,0.483,-35.767,-59.814,-44.128,3
0.189,1.330,0.334,-44.800,-59.570,-35.889,3
0.201,1.288,0.183,-42.725,-55.115,-37.170,3
0.228,1.234,0.224,-37.170,-48.401,-40.283,3
0.339,1.159,0.358,-37.659,-43.030,-40.039,3
0.401,1.135,0.415,-48.218,-27.649,-32.593,3
0.394,1.078,0.242,-58.655,-16.907,-24.963,3
0.356,1.032,0.046,-55.359,-9.399,-21.606,3
0.340,1.028,0.021,-38.696,-9.705,-19.348,3
0.407,0.959,0.178,-33.508,-9.033,-14.160,3
0.410,0.904,0.361,-40.161,-1.526,-12.817,3
0.392,0.854,0.330,-57.983,2.014,-4.456,3
0.335,0.810,0.169,-68.665,9.460,0.305,3
0.315,0.789,0.057,-64.453,17.883,-0.366,3
0.344,0.756,0.076,-52.673,17.639,-1.099,3
0.404,0.744,0.101,-42.175,22.278,1.587,3
0.408,0.707,0.193,-37.598,22.278,12.085,3
0.325,0.657,0.202,-44.739,36.865,23.193,3
0.278,0.637,0.081,-53.650,54.321,26.367,3
0.249,0.614,0.007,-55.847,60.425,24.109,3
0.271,0.591,-0.112,-47.852,64.087,24.719,3
0.259,0.562,-0.168,-31.677,55.725,34.485,3
0.220,0.548,-0.079,-18.188,45.898,49.500,3
0.079,0.538,-0.004,-18.066,47.119,61.401,3
-0.038,0.511,-0.040,-28.259,59.082,61.462,3
-0.120,0.499,-0.102,-29.358,68.237,62.073,3
-0.270,0.497,-0.143,-26.123,61.707,63.477,3
-0.281,0.532,-0.146,-19.348,48.035,53.650,3
-0.253,0.524,-0.140,-16.174,55.847,40.649,3
-0.194,0.524,-0.108,-12.451,73.120,34.851,3
-0.206,0.526,-0.081,-6.653,78.491,41.992,3
-0.328,0.555,-0.024,-4.456,63.782,48.767,3
-0.423,0.601,0.001,-3.601,52.673,49.011,3
-0.422,0.612,-0.048,-6.287,45.654,42.847,3
-0.424,0.564,-0.117,-5.005,67.627,30.945,3
-0.412,0.568,-0.089,5.127,80.750,25.940,3
-0.566,0.609,0.025,17.883,63.599,28.809,3
-0.587,0.615,0.097,17.822,47.485,26.428,3
-0.576,0.588,0.017,8.728,52.551,15.381,3
-0.480,0.551,-0.124,4.333,68.481,-2.625,3
-0.484,0.522,-0.169,15.564,74.219,-6.653,3
-0.642,0.642,-0.021,41.870,58.350,1.099,3
-0.685,0.657,0.077,53.040,28.809,6.714,3
-0.800,0.658,0.240,50.842,19.409,2.991,3
-0.769,0.627,0.201,37.476,32.227,-20.325,3
-0.593,0.678,0.073,29.114,63.965,-51.147,3
-0.478,0.788,0.005,37.964,77.576,-56.396,3
-0.511,0.846,0.149,55.908,57.190,-37.354,3
-0.749,0.818,0.363,66.833,18.982,-17.395,3
-0.855,0.764,0.344,59.631,12.146,-27.649,3
-0.757,0.827,0.259,55.542,24.414,-56.580,3
-0.462,0.961,0.099,56.519,35.339,-64.087,3
-0.426,1.056,0.209,72.510,42.053,-50.232,3
-0.559,1.014,0.565,91.248,2.197,-24.170,3
-0.740,1.030,0.715,83.740,-37.476,-12.268,3
-0.733,1.139,0.638,69.397,-40.405,-27.832,3
-0.555,1.250,0.481,59.509,-18.250,-44.678,3
-0.475,1.259,0.473,59.570,-14.587,-42.236,3
-0.515,1.247,0.543,62.439,-33.386,-28.198,3
-0.546,1.274,0.586,58.960,-55.176,-18.188,3
-0.549,1.299,0.520,52.856,-60.120,-20.752,3
-0.497,1.289,0.484,47.180,-58.411,-26.794,3
-0.498,1.243,0.491,41.504,-59.875,-26.184,3
-0.478,1.217,0.482,38.635,-57.007,-25.696,3
-0.464,1.195,0.419,28.992,-60.181,-23.987,3
-0.469,1.187,0.382,24.719,-70.129,-21.912,3
-0.495,1.179,0.344,21.362,-73.059,-25.269,3
-0.493,1.202,0.354,20.813,-71.167,-36.133,3
-0.418,1.252,0.453,20.691,-69.580,-50.415,3
-0.247,1.292,0.659,18.433,-64.758,-64.697,3
-0.052,1.324,0.731,4.578,-60.913,-66.406,3
0.051,1.317,0.650,-13.977,-71.899,-54.688,3
0.049,1.312,0.481,-24.353,-81.848,-41.138,3
-0.012,1.317,0.446,-24.658,-86.975,-38.025,3
0.034,1.302,0.514,-24.109,-78.247,-45.105,3
0.134,1.286,0.585,-33.386,-67.261,-48.096,3
0.169,1.269,0.548,-56.396,-61.829,-44.678,3
0.221,1.236,0.421,-53.162,-59.570,-42.358,3
0.220,1.207,0.285,-55.908,-50.598,-39.368,3
0.290,1.163,0.307,-52.856,-42.786,-41.138,3
0.428,1.156,0.405,-54.138,-33.264,-38.696,3
0.450,1.137,0.434,-60.364,-27.832,-25.146,3
0.396,1.090,0.351,-67.871,-25.879,-15.686,3
0.421,1.040,0.250,-71.106,-18.066,-17.151,3
0.468,1.014,0.176,-69.763,-8.301,-13.245,3
0.457,0.968,0.153,-66.040,-1.526,-1.160,3
0.388,0.928,0.132,-62.439,-1.282,11.841,3
0.292,0.895,0.059,-58.533,9.155,16.846,3
0.199,0.854,0.004,-54.565,13.550,14.709,3
0.192,0.826,0.006,-46.631,12.207,14.832,3
0.148,0.785,0.030,-46.448,19.714,14.038,3
0.186,0.760,-0.012,-46.387,37.231,14.709,3
0.176,0.740,-0.007,-45.166,37.292,19.958,3
0.138,0.695,-0.034,-43.396,35.278,24.170,3
0.165,0.687,-0.107,-38.818,40.344,22.522,3
0.204,0.668,-0.114,-27.405,39.490,24.109,3
0.200,0.627,-0.025,-17.639,47.485,35.828,3
0.054,0.612,0.041,-15.198,50.964,49.988,3
-0.001,0.602,0.048,-16.235,44.739,54.077,3
-0.621,1.377,0.821,30.151,-37.109,-23.071,3
-0.564,1.415,0.942,13.550,-22.949,-48.279,3
-0.498,1.228,0.681,-21.057,-9.094,-63.049,3
-0.373,1.145,0.465,-39.612,-24.109,-50.598,3
-0.321,1.081,0.095,-37.048,-39.734,-24.597,3
-0.415,1.059,0.014,-18.799,-75.623,-12.878,3
-0.523,1.083,0.072,0.977,-94.910,-6.958,3
-0.484,1.136,0.252,13.611,-88.135,-19.287,3
-0.439,1.183,0.453,10.925,-65.186,-34.546,3
-0.308,1.230,0.447,-3.967,-49.622,-49.744,3
-0.132,1.263,0.270,-14.038,-48.035,-49.194,3
-0.074,1.275,0.239,-12.329,-63.293,-40.771,3
-0.026,1.274,0.272,-10.986,-64.514,-42.175,3
0.035,1.279,0.289,-12.512,-63.782,-46.875,3
0.198,1.289,0.334,-14.404,-61.523,-46.692,3
0.289,1.288,0.384,-21.179,-56.946,-41.504,3
0.325,1.279,0.357,-29.968,-45.898,-37.903,3
0.445,1.247,0.312,-32.043,-40.527,-35.767,3
0.558,1.210,0.317,-29.236,-47.119,-30.212,3
0.586,1.168,0.414,-34.546,-43.396,-18.250,3
0.558,1.151,0.400,-45.898,-33.508,-10.437,3
0.601,1.142,0.312,-55.847,-25.269,-7.690,3
0.578,1.137,0.216,-60.303,-18.799,-2.686,3
0.575,1.094,0.203,-61.462,-14.771,4.517,3
0.534,1.048,0.252,-63.599,-10.376,7.751,3
0.516,0.978,0.234,-69.946,-0.549,12.329,3
0.500,0.931,0.180,-77.759,6.714,16.968,3
0.465,0.884,0.089,-81.360,13.855,23.376,3
0.380,0.847,0.010,-79.590,19.775,28.442,3
0.315,0.796,-0.056,-73.853,18.433,30.457,3
0.281,0.739,-0.080,-68.604,26.306,29.602,3
0.278,0.721,-0.083,-64.575,38.330,29.114,3
0.253,0.672,-0.119,-62.805,43.762,30.151,3
0.182,0.628,-0.175,-57.800,52.734,31.189,3
0.141,0.618,-0.232,-46.082,54.993,30.884,3
0.113,0.625,-0.245,-29.297,52.368,28.320,3
0.092,0.596,-0.220,-13.855,52.673,24.719,3
0.121,0.586,-0.090,-4.395,56.641,24.475,3
0.096,0.586,0.007,-6.714,62.561,31.555,3
-0.010,0.547,0.005,-17.334,60.425,38.025,3
-0.041,0.552,-0.031,-22.400,61.951,38.269,3
-0.058,0.533,-0.116,-22.156,60.974,36.316,3
-0.067,0.517,-0.165,-15.442,60.181,34.912,3
-0.091,0.510,-0.171,-5.615,57.068,36.072,3
-0.175,0.484,-0.118,5.249,49.866,42.114,3
-0.304,0.437,-0.024,11.108,40.466,45.471,3
-0.345,0.397,-0.009,8.850,41.565,37.292,3
-0.293,0.422,-0.095,3.906,55.847,24.658,3
-0.270,0.468,-0.132,7.874,69.275,18.799,3
-0.318,0.485,-0.085,20.386,69.336,22.888,3
-0.348,0.468,-0.026,33.020,59.448,32.410,3
-0.471,0.471,0.100,33.508,54.077,34.302,3
-0.443,0.505,0.152,23.437,48.462,24.963,3
-0.424,0.549,0.061,11.963,46.692,19.531,3
-0.514,0.602,0.039,18.555,47.119,26.428,3
-0.708,0.578,0.116,32.104,32.837,26.001,3
-0.694,0.574,0.151,36.987,29.236,6.836,3
-0.588,0.658,0.124,37.048,42.297,-12.207,3
-0.546,0.707,0.097,37.292,48.767,-15.320,3
-0.570,0.775,0.045,41.809,40.466,-13.184,3
-0.576,0.797,0.099,54.504,18.860,-9.155,3
-0.636,0.797,0.199,56.458,15.442,-7.874,3
-0.700,0.870,0.234,56.030,20.813,-12.817,3
-0.717,0.931,0.172,54.077,18.494,-19.653,3
-0.726,0.960,0.157,63.660,16.296,-24.902,3
-0.770,0.964,0.260,74.646,9.949,-29.663,3
-0.769,0.972,0.298,77.881,3.906,-37.598,3
-0.688,1.044,0.399,76.416,7.629,-43.030,3
-0.604,1.131,0.398,67.444,19.409,-46.631,3
-0.644,1.172,0.420,62.012,14.587,-37.354,3
-0.770,1.339,0.394,60.120,-12.085,-29.724,3
-0.832,1.444,0.417,62.073,-41.565,-34.546,3
-0.748,1.447,0.543,58.472,-30.762,-51.208,3
-0.615,1.408,0.692,47.913,-33.447,-54.504,3
-0.503,1.425,0.619,28.625,-43.091,-51.880,3
-0.469,1.381,0.485,15.747,-52.246,-48.767,3
-0.422,1.352,0.397,10.559,-58.777,-47.241,3
-0.455,1.307,0.368,7.812,-70.190,-47.852,3
-0.411,1.286,0.353,5.066,-57.800,-52.856,3
-0.359,1.275,0.356,4.272,-67.505,-56.885,3
-0.261,1.276,0.342,2.197,-68.359,-60.242,3
-0.111,1.311,0.326,-1.343,-69.702,-63.416,3
0.027,1.327,0.380,-6.714,-67.688,-63.660,3
0.129,1.350,0.348,-14.587,-63.721,-59.387,3
0.231,1.375,0.351,-18.738,-63.782,-51.575,3
0.324,1.387,0.394,-22.034,-72.937,-36.865,3
0.338,1.367,0.372,-29.480,-72.937,-24.902,3
0.356,1.360,0.307,-34.668,-74.707,-17.578,3
0.377,1.324,0.302,-34.363,-66.833,-16.968,3
0.439,1.272,0.404,-40.344,-50.537,-16.357,3
0.488,1.227,0.333,-52.551,-41.199,-13.733,3
0.520,1.200,0.198,-58.960,-43.457,-6.775,3
0.503,1.133,0.127,-55.298,-43.518,-0.549,3
0.430,1.122,0.121,-50.171,-27.771,-0.916,3
0.441,1.061,0.163,-48.584,-18.188,-2.441,3
0.479,1.012,0.148,-49.255,-5.066,-0.549,3
0.472,0.951,0.196,-53.040,-0.427,6.592,3
0.430,0.927,0.155,-60.364,2.014,13.000,3
0.388,0.905,0.117,-63.416,0.610,17.456,3
0.334,0.877,0.034,-65.491,10.925,18.127,3
0.305,0.850,-0.008,-61.707,21.118,19.287,3
0.245,0.824,-0.000,-57.434,25.879,23.560,3
0.191,0.780,-0.002,-54.504,24.597,25.513,3
0.170,0.776,-0.032,-54.016,29.358,23.315,3
0.155,0.767,-0.097,-53.284,34.546,21.912,3
0.161,0.724,-0.161,-48.340,42.969,21.790,3
0.132,0.691,-0.181,-36.926,45.959,24.170,3
0.151,0.683,-0.105,-24.353,45.593,26.733,3
0.134,0.628,-0.028,-17.273,40.771,34.790,3
0.069,0.569,-0.017,-19.409,43.274,36.011,3
0.089,0.520,-0.062,-19.897,58.411,34.302,3
0.052,0.492,-0.084,-16.113,66.223,36.438,3
0.011,0.480,-0.099,-7.629,62.744,42.725,3
-0.086,0.475,-0.109,-4.211,57.678,45.471,3
-0.184,0.443,-0.065,2.075,45.471,48.706,3
-0.237,0.421,-0.028,3.479,45.837,47.974,3
-0.265,0.387,-0.040,-1.343,52.307,41.748,3
-0.270,0.409,-0.088,-3.357,59.753,36.499,3
-0.298,0.439,-0.076,0.977,63.538,35.461,3
-0.542,1.269,0.800,85.693,-4.944,-36.987,3
-0.569,1.210,0.888,73.425,-20.935,-32.166,3
-0.535,1.238,0.881,56.274,-27.039,-34.180,3
-0.508,1.289,0.776,47.058,-28.687,-35.095,3
-0.448,1.329,0.591,33.447,-25.085,-39.185,3
-0.415,1.331,0.555,31.250,-26.672,-37.598,3
-0.355,1.313,0.641,29.480,-36.316,-33.081,3
-0.345,1.278,0.715,23.071,-48.645,-29.602,3
-0.318,1.255,0.704,6.165,-51.880,-30.823,3
-0.314,1.242,0.536,-9.583,-48.523,-36.560,3
-0.289,1.237,0.367,-17.273,-39.917,-41.443,3
-0.193,1.255,0.315,-11.536,-37.842,-40.039,3
-0.134,1.234,0.396,-3.235,-54.321,-29.541,3
-0.134,1.224,0.457,-2.441,-78.918,-18.494,3
-0.128,1.249,0.439,-9.460,-84.656,-16.357,3
-0.178,1.246,0.341,-17.761,-75.684,-21.484,3
-0.133,1.274,0.266,-17.639,-64.819,-32.593,3
-0.028,1.285,0.242,-12.024,-60.242,-36.865,3
0.113,1.272,0.423,-6.348,-63.965,-31.738,3
0.094,1.217,0.562,-15.625,-70.618,-19.409,3
0.063,1.217,0.419,-34.424,-59.204,-21.973,3
0.106,1.216,0.306,-39.856,-52.185,-29.053,3
0.179,1.225,0.262,-32.043,-52.551,-31.799,3
0.222,1.174,0.373,-21.851,-59.265,-28.687,3
0.273,1.130,0.495,-23.132,-45.837,-27.710,3
0.264,1.031,0.463,-32.288,-32.593,-21.973,3
0.228,1.034,0.410,-43.884,-22.034,-27.832,3
0.276,1.012,0.294,-45.471,-21.484,-30.396,3
0.294,0.990,0.255,-38.330,-32.837,-30.029,3
0.357,0.937,0.333,-32.654,-22.034,-26.672,3
0.354,0.894,0.392,-37.537,-6.226,-24.658,3
0.419,0.890,0.337,-47.180,4.395,-19.592,3
0.419,0.891,0.260,-52.002,1.953,-9.827,3
0.413,0.884,0.211,-51.025,-2.869,-1.221,3
0.377,0.864,0.162,-48.218,6.714,3.357,3
0.354,0.851,0.126,-43.823,19.287,5.188,3
0.361,0.846,0.108,-38.574,22.949,9.460,3
0.341,0.818,0.102,-36.377,24.658,12.512,3
0.335,0.802,0.100,-32.898,26.672,19.470,3
0.265,0.776,0.090,-29.053,26.672,28.259,3
0.212,0.755,0.048,-28.625,37.354,31.128,3
0.115,0.737,0.037,-24.292,46.082,34.424,3
0.088,0.708,0.020,-25.513,42.358,34.058,3
0.068,0.666,-0.004,-26.672,37.109,33.264,3
0.085,0.658,-0.028,-23.804,45.227,32.166,3
0.066,0.653,-0.075,-19.897,45.837,33.081,3
0.051,0.663,-0.057,-7.812,44.678,38.330,3
0.032,0.624,0.011,-1.404,43.030,43.274,3
0.038,0.589,0.050,-3.845,49.072,45.471,3
0.028,0.563,0.045,-9.705,48.828,53.101,3
-0.109,0.517,0.039,-12.268,41.138,64.880,3
-0.218,0.516,0.015,-11.780,33.936,68.237,3
-0.232,0.513,0.014,-10.864,29.602,70.496,3
-0.306,0.496,0.026,-10.925,32.288,70.190,3
-0.361,0.512,0.026,-11.780,37.170,67.200,3
-0.425,0.551,0.053,-11.414,35.889,63.599,3
-0.467,0.562,0.084,-10.864,33.936,60.181,3
-0.444,0.560,0.055,-13.733,46.082,53.162,3
-0.524,0.607,0.008,-13.245,52.490,49.744,3
-0.517,0.631,-0.016,-9.644,60.425,38.879,3
-0.527,0.627,-0.016,-5.920,52.124,27.161,3
-0.545,0.616,0.021,-2.930,61.584,18.433,3
-0.537,0.643,0.034,0.854,64.575,16.418,3
-0.580,0.699,0.095,4.211,56.213,16.907,3
-0.633,0.667,0.111,5.127,31.006,15.259,3
-0.473,0.613,0.065,6.592,34.058,3.723,3
-0.333,0.535,-0.057,5.371,64.575,-8.911,3
-0.324,0.616,-0.111,15.259,75.195,-7.935,3
-0.548,0.690,-0.016,37.354,36.194,14.221,3
-0.646,0.699,0.130,49.866,-0.183,25.574,3
-0.758,0.697,0.154,46.997,-2.747,11.475,3
-0.708,0.724,0.128,37.231,18.433,-2.197,3
-0.583,0.788,0.031,31.860,57.739,-21.545,3
-0.615,0.826,0.084,42.236,59.875,-23.499,3
-0.606,0.856,0.167,54.565,38.818,-26.672,3
-0.564,0.861,0.269,57.251,21.667,-27.222,3
-0.507,0.894,0.306,53.528,20.386,-28.015,3
-0.550,0.975,0.327,49.805,18.494,-21.240,3
-0.618,0.989,0.340,52.856,5.188,-15.320,3
-0.676,1.008,0.431,58.472,-6.531,-14.099,3
-0.725,1.042,0.576,62.500,-23.621,-12.695,3
-0.705,1.150,0.565,54.077,-16.785,-18.921,3
-0.674,1.196,0.444,43.518,-9.521,-26.123,3
-0.689,1.191,0.425,44.373,-9.094,-31.006,3
-0.658,1.158,0.502,49.011,-20.142,-35.767,3
-0.593,1.127,0.564,49.377,-26.428,-39.551,3
-0.501,1.133,0.525,40.039,-17.700,-44.067,3
-0.451,1.172,0.410,33.264,-13.611,-46.509,3
-0.404,1.178,0.317,35.339,-14.282,-44.800,3
-0.384,1.159,0.374,43.823,-21.484,-40.649,3
-0.413,1.160,0.469,46.570,-26.611,-36.865,3
-0.415,1.203,0.589,41.260,-29.114,-42.786,3
-0.382,1.214,0.617,35.156,-30.945,-49.744,3
-0.278,1.223,0.590,22.827,-33.875,-50.598,3
-0.228,1.198,0.478,14.038,-49.561,-38.574,3
-0.313,1.171,0.440,11.719,-63.538,-18.433,3
-0.423,1.162,0.403,11.047,-73.608,-12.329,3
-0.397,1.211,0.461,12.939,-72.388,-25.330,3
-0.258,1.260,0.579,10.193,-68.359,-38.086,3
-0.165,1.312,0.643,-0.610,-61.890,-39.063,3
-0.130,1.342,0.623,-13.916,-55.298,-36.926,3
-0.097,1.382,0.535,-21.851,-51.880,-38.635,3
-0.023,1.378,0.473,-21.790,-51.270,-40.588,3
0.051,1.349,0.495,-21.484,-54.749,-43.091,3
0.082,1.292,0.589,-24.536,-48.218,-42.297,3
0.106,1.238,0.658,-39.185,-32.837,-39.734,3
0.152,1.169,0.557,-61.340,-24.780,-39.246,3
0.234,1.133,0.334,-74.524,-35.950,-31.555,3
0.231,1.094,0.238,-70.129,-47.363,-24.048,3
0.236,1.070,0.273,-64.026,-39.978,-24.536,3
0.268,1.042,0.276,-62.256,-26.123,-27.039,3
0.364,1.001,0.366,-64.758,-19.958,-24.780,3
0.379,0.954,0.359,-75.012,-8.606,-12.939,3
0.315,0.908,0.232,-83.069,-2.502,-3.174,3
0.298,0.872,0.117,-79.590,-0.916,-1.953,3
0.334,0.843,0.122,-72.205,-1.099,-0.305,3
0.334,0.820,0.138,-68.237,5.981,6.042,3
0.284,0.780,0.115,-68.298,16.174,11.353,3
0.251,0.752,0.056,-65.918,21.912,14.771,3
-1.997,0.660,-0.179,-57.800,-44.800,108.398,0
-1.888,0.676,-0.250,-42.969,-59.082,35.522,0
-1.834,0.637,-0.275,-36.804,-57.251,-19.592,0
-1.718,0.576,-0.304,-22.644,-50.049,-46.814,0
-1.661,0.494,-0.306,-8.667,-51.270,-105.164,0
-1.351,0.464,-0.291,4.700,-53.650,-167.542,0
-1.006,0.440,-0.272,13.000,-42.297,-220.093,0
-0.577,0.434,-0.290,21.606,-14.282,-266.541,0
-0.095,0.498,-0.352,30.029,5.554,-293.518,0
0.369,0.523,-0.374,37.048,28.564,-304.260,0
0.653,0.547,-0.366,40.344,35.889,-303.284,0
1.190,0.564,-0.305,36.743,52.673,-281.006,0
1.670,0.611,-0.401,14.404,77.026,-233.276,0
2.160,0.760,-0.646,11.658,47.852,-145.203,0
2.146,0.801,-0.742,22.583,-25.513,-36.987,0
1.759,0.685,-0.655,36.987,-36.438,40.222,0
1.439,0.610,-0.470,41.138,6.165,82.397,0
1.257,0.589,-0.339,23.682,17.395,115.784,0
0.876,0.628,-0.345,20.569,18.677,155.396,0
0.715,0.638,-0.176,28.442,9.766,182.800,0
0.219,0.673,-0.048,41.504,-4.578,236.877,0
-0.167,0.743,0.085,35.400,-8.423,283.203,0
-0.767,0.645,0.167,17.639,-28.931,327.271,0
-1.379,0.564,0.306,10.925,-67.505,337.646,0
-2.088,0.354,0.280,-27.527,-65.063,304.443,0
-2.475,0.416,-0.027,-53.711,-43.030,217.346,0
-2.505,0.524,-0.154,-43.335,-59.326,104.492,0
-2.489,0.491,-0.323,-50.842,-15.381,-5.432,0
-2.160,0.457,-0.454,-17.395,-35.706,-93.201,0
-1.749,0.480,-0.359,7.263,-37.292,-151.428,0
-1.359,0.430,-0.229,22.400,-31.006,-203.247,0
-0.948,0.438,-0.137,32.532,-10.498,-247.314,0
-0.584,0.365,-0.142,21.118,8.545,-296.021,0
-0.120,0.446,-0.232,5.066,39.368,-337.952,0
0.371,0.445,-0.419,0.671,65.491,-367.615,0
0.963,0.425,-0.599,-9.155,120.667,-363.770,0
1.718,0.538,-0.860,-6.104,111.816,-309.387,0
1.948,0.595,-0.828,25.452,51.514,-194.641,0
1.919,0.584,-0.702,52.795,1.343,-89.111,0
1.813,0.591,-0.680,64.880,-14.099,-5.981,0
1.575,0.521,-0.690,63.843,-17.273,56.335,0
1.366,0.609,-0.566,58.960,-14.465,87.646,0
1.284,0.646,-0.462,63.049,-15.015,108.582,0
1.032,0.669,-0.205,72.937,-22.522,161.316,0
0.736,0.648,0.080,73.181,-12.695,214.478,0
0.154,0.562,0.207,47.302,-13.428,269.531,0
-0.355,0.619,0.309,20.630,-39.368,298.035,0
-0.828,0.652,0.132,5.371,-71.777,330.994,0
-1.370,0.606,0.387,-1.709,-97.351,342.773,0
-1.918,0.432,0.198,-39.978,-74.951,331.787,0
-2.368,0.279,0.093,-53.101,-34.424,263.306,0
-2.736,0.464,-0.110,-44.678,-66.650,191.772,0
-2.556,0.505,-0.131,-26.428,-102.417,57.617,0
-2.261,0.446,-0.348,-46.997,-7.690,-53.406,0
-1.911,0.461,-0.323,-32.715,6.226,-132.446,0
-1.425,0.433,-0.289,-9.705,-25.146,-194.214,0
-1.046,0.387,-0.261,7.568,-15.991,-246.887,0
-0.592,0.422,-0.219,9.155,25.330,-300.415,0
-0.160,0.343,-0.250,-5.493,77.881,-346.497,0
0.586,0.328,-0.444,-27.588,129.944,-381.775,0
1.584,0.424,-0.736,-36.621,119.507,-344.666,0
2.256,0.585,-0.937,-26.550,55.847,-220.215,0
2.273,0.673,-0.846,11.597,-29.602,-71.289,0
1.840,0.635,-0.759,38.696,-71.960,39.612,0
1.492,0.613,-0.681,41.016,-33.936,89.294,0
1.202,0.603,-0.554,41.260,9.033,114.563,0
0.891,0.626,-0.352,50.781,18.616,147.400,0
0.667,0.709,-0.141,58.655,13.611,187.866,0
0.497,0.706,-0.043,61.340,2.808,242.310,0
-0.017,0.679,0.138,55.420,-0.183,268.372,0
-0.755,0.602,0.283,38.940,-13.855,310.974,0
-1.546,0.573,0.391,20.508,-69.763,327.454,0
-1.987,0.511,0.299,-11.902,-114.990,290.039,0
-2.395,0.538,-0.040,-45.776,-101.868,219.910,0
-2.662,0.507,-0.303,-40.161,-30.518,127.380,0
-2.480,0.516,-0.375,-20.386,-19.409,4.639,0
-1.989,0.487,-0.233,-3.479,-20.142,-96.619,0
-1.630,0.444,-0.102,-0.610,-5.310,-158.997,0
-1.213,0.452,-0.075,-3.174,-0.549,-209.412,0
-0.840,0.455,-0.125,-7.874,8.362,-252.014,0
-0.473,0.465,-0.219,-14.709,31.555,-293.396,0
-0.087,0.427,-0.293,-22.522,57.983,-333.984,0
0.413,0.354,-0.388,-34.729,101.624,-367.859,0
1.223,0.306,-0.612,-47.607,136.108,-363.708,0
2.042,0.440,-0.966,-53.650,110.229,-278.442,0
2.471,0.585,-1.046,-26.794,33.142,-135.376,0
2.452,0.547,-0.905,11.414,-40.710,13.489,0
1.975,0.540,-0.862,23.499,-34.485,105.286,0
1.522,0.514,-0.836,38.574,-34.851,131.287,0
1.101,0.510,-0.666,48.401,-17.029,162.354,0
0.843,0.590,-0.414,70.435,-19.287,194.458,0
0.526,0.596,-0.077,87.219,-15.686,237.183,0
0.119,0.618,0.126,76.172,-0.305,288.452,0
-0.749,0.536,0.278,56.458,-20.142,340.698,0
-1.496,0.507,0.405,34.790,-80.994,355.530,0
-1.677,0.503,0.192,6.348,-153.320,336.731,0
-2.146,0.427,0.064,-7.019,-158.508,316.956,0
-2.726,0.350,-0.233,-31.433,-79.651,219.849,0
-2.816,0.498,-0.408,-27.649,-42.236,73.181,0
-2.303,0.442,-0.351,-3.601,-23.499,-52.124,0
-1.828,0.447,-0.239,1.343,14.221,-132.812,0
-1.416,0.444,-0.164,4.395,-1.099,-184.570,0
-1.041,0.429,-0.151,6.958,-10.498,-228.760,0
-0.621,0.433,-0.197,5.005,10.742,-273.010,0
-0.256,0.413,-0.263,-2.869,53.955,-315.430,0
0.285,0.425,-0.404,-13.489,92.773,-350.830,0
0.780,0.453,-0.587,-16.663,112.427,-348.816,0
1.408,0.469,-0.682,-18.127,133.301,-319.397,0
2.111,0.575,-0.870,-12.451,83.191,-219.421,0
2.086,0.629,-0.802,15.503,-6.836,-82.275,0
1.824,0.628,-0.686,32.043,-35.278,24.109,0
1.664,0.645,-0.638,34.546,-36.560,89.417,0
1.335,0.671,-0.593,30.823,-28.625,106.567,0
1.021,0.670,-0.472,39.001,-16.663,143.311,0
0.847,0.694,-0.247,49.866,-6.104,176.392,0
0.592,0.702,-0.066,56.885,-14.404,232.849,0
0.132,0.697,0.101,46.265,-24.048,290.649,0
-0.541,0.564,0.181,24.780,-47.852,344.543,0
-1.281,0.426,0.236,12.695,-89.905,366.760,0
1.582,0.826,-0.580,-3.601,53.894,-61.951,0
1.600,0.797,-0.486,17.212,-22.949,46.936,0
1.316,0.751,-0.346,24.719,-60.486,139.282,0
1.101,0.724,-0.314,19.165,-52.307,201.965,0
0.704,0.729,-0.262,19.043,-48.828,225.769,0
0.293,0.741,-0.120,19.043,-45.288,266.541,0
-0.186,0.700,0.035,13.428,-39.856,308.411,0
-0.812,0.584,0.108,-3.174,-41.016,343.079,0
-1.528,0.410,0.120,-21.484,-57.617,349.976,0
-2.096,0.348,-0.024,-35.278,-99.121,302.002,0
-2.473,0.375,-0.299,-43.945,-118.835,197.327,0
-2.486,0.401,-0.539,-33.630,-90.027,68.848,0
-2.245,0.370,-0.589,-21.301,-33.997,-54.749,0
-1.897,0.309,-0.463,1.465,-20.325,-153.442,0
-1.403,0.342,-0.359,21.057,-24.109,-231.140,0
-0.970,0.347,-0.272,32.166,-11.353,-294.250,0
-0.507,0.354,-0.207,31.372,26.428,-346.802,0
-0.019,0.354,-0.234,14.343,89.417,-393.677,0
0.582,0.248,-0.399,-2.747,153.503,-423.828,0
1.428,0.302,-0.657,-17.578,174.744,-402.222,0
2.225,0.490,-0.957,-14.038,128.296,-300.598,0
2.601,0.616,-0.954,22.766,18.921,-125.122,0
2.453,0.705,-0.732,46.448,-45.471,55.359,0
1.796,0.608,-0.426,64.941,-97.900,108.276,0
1.278,0.620,-0.445,39.978,-73.364,153.442,0
1.039,0.674,-0.463,27.405,-24.109,168.213,0
0.801,0.730,-0.205,31.372,-28.687,193.604,0
0.507,0.721,0.022,31.677,-42.847,248.230,0
0.208,0.644,0.085,12.634,-40.955,311.157,0
-0.051,0.586,0.062,1.099,-42.358,368.347,0
-0.655,0.426,-0.021,-19.104,-43.213,384.888,0
-1.258,0.254,-0.139,-33.447,-46.021,397.095,0
-1.975,0.151,-0.197,-22.339,-77.087,359.863,0
-2.581,0.139,-0.327,-22.827,-85.815,251.770,0
-2.655,0.274,-0.463,-14.587,-55.908,109.863,0
-2.401,0.245,-0.564,-14.893,-7.324,-20.935,0
-2.013,0.246,-0.528,-2.808,-0.977,-119.202,0
-1.655,0.306,-0.430,18.494,-23.071,-187.683,0
-1.266,0.367,-0.330,34.912,-20.142,-246.948,0
-0.885,0.372,-0.242,43.884,10.315,-308.167,0
-0.390,0.422,-0.098,41.870,37.170,-366.516,0
-0.006,0.316,-0.126,21.179,86.975,-407.288,0
0.466,0.225,-0.344,-14.709,171.631,-451.294,0
1.211,0.108,-0.636,-42.175,229.797,-462.891,0
2.264,0.251,-1.045,-57.251,218.445,-385.742,0
3.116,0.597,-1.220,-36.743,110.596,-197.693,0
2.492,0.523,-0.958,35.889,-62.317,45.532,0
1.616,0.428,-0.721,65.918,-117.432,164.978,0
1.433,0.458,-0.676,53.650,-53.772,180.603,0
1.118,0.534,-0.600,47.058,-38.696,182.251,0
0.876,0.563,-0.312,60.059,-42.542,206.055,0
0.702,0.627,-0.079,67.017,-42.419,251.770,0
0.417,0.636,0.125,54.321,-17.456,310.242,0
-0.282,0.484,0.189,25.452,-27.954,379.395,0
-1.263,0.224,0.187,-3.601,-58.411,420.410,0
-1.800,0.247,0.093,-11.475,-135.254,396.240,0
-1.953,0.259,-0.018,-20.935,-185.913,335.632,0
-2.521,0.204,-0.339,-39.490,-97.351,223.145,0
-2.889,0.238,-0.638,-40.039,-17.883,55.542,0
-2.666,0.328,-0.666,-24.109,-16.968,-18.311,0
-2.151,0.297,-0.526,5.554,7.751,-125.244,0
-1.680,0.338,-0.383,26.123,10.925,-195.190,0
-1.228,0.378,-0.258,40.527,-12.268,-250.366,0
-0.846,0.388,-0.133,43.884,2.747,-296.570,0
-0.432,0.376,-0.058,33.325,45.715,-345.154,0
0.035,0.388,-0.126,10.254,98.450,-388.489,0
0.563,0.314,-0.360,-13.916,156.372,-412.537,0
1.200,0.239,-0.556,-39.612,202.637,-407.837,0
2.276,0.423,-0.893,-50.964,161.865,-322.632,0
2.628,0.608,-1.017,-25.818,19.226,-129.761,0
2.100,0.578,-0.799,17.334,-77.148,32.043,0
1.696,0.577,-0.683,26.367,-74.097,115.479,0
1.305,0.617,-0.572,22.705,-48.523,152.466,0
1.159,0.594,-0.493,29.602,-37.231,190.369,0
0.965,0.628,-0.258,29.297,-44.128,208.740,0
0.618,0.644,-0.083,27.039,-37.231,258.911,0
0.279,0.642,-0.069,23.254,-5.371,312.988,0
-0.327,0.536,-0.000,10.559,-14.709,357.666,0
-0.969,0.387,0.029,-3.113,-43.823,387.695,0
-1.640,0.257,0.026,-10.071,-72.083,377.686,0
-2.157,0.218,-0.139,-17.700,-119.080,313.171,0
-2.592,0.300,-0.355,-24.231,-98.755,211.121,0
-2.731,0.323,-0.564,-17.395,-31.494,82.886,0
-2.413,0.326,-0.542,-7.874,-7.812,-61.279,0
-1.870,0.339,-0.470,5.493,-8.057,-161.438,0
-1.435,0.377,-0.357,23.254,-12.207,-218.079,0
-1.090,0.382,-0.259,34.241,1.892,-261.597,0
-0.728,0.351,-0.183,35.645,16.296,-305.725,0
-0.326,0.383,-0.184,25.269,42.053,-351.685,0
0.083,0.362,-0.269,7.324,87.219,-391.418,0
0.335,0.346,-0.328,-12.085,136.292,-413.208,0
0.855,0.239,-0.481,-20.691,159.546,-400.696,0
1.417,0.266,-0.768,-32.410,182.678,-376.892,0
2.125,0.344,-0.931,-24.414,146.179,-291.870,0
2.696,0.612,-1.056,1.404,29.419,-125.244,0
2.088,0.484,-0.775,48.279,-75.989,53.833,0
1.497,0.468,-0.738,49.683,-58.838,115.662,0
1.297,0.569,-0.740,35.828,-24.292,119.934,0
1.187,0.573,-0.588,51.147,-36.377,150.146,0
0.991,0.568,-0.348,73.181,-58.289,207.275,0
0.756,0.549,-0.163,82.520,-46.570,253.479,0
0.495,0.538,0.117,73.730,-31.067,271.973,0
0.008,0.494,0.196,44.983,-27.161,310.974,0
-0.485,0.498,0.235,13.428,-52.612,340.515,0
-1.158,0.407,0.176,-21.423,-92.346,370.117,0
-1.641,0.486,0.019,-39.917,-129.578,356.689,0
-2.127,0.236,-0.119,-56.152,-117.981,303.955,0
-2.609,0.251,-0.384,-72.937,-65.247,204.224,0
-2.758,0.452,-0.594,-49.316,-19.287,81.360,0
-2.350,0.453,-0.695,-29.968,2.319,-33.813,0
-1.931,0.436,-0.610,-11.658,-6.165,-121.216,0
-1.573,0.393,-0.455,12.634,-21.790,-177.307,0
-1.139,0.380,-0.355,29.480,-26.978,-229.370,0
-0.771,0.364,-0.271,39.673,-12.024,-276.123,0
-0.385,0.320,-0.264,34.729,36.194,-331.055,0
0.196,0.356,-0.276,19.958,87.891,-379.944,0
0.892,0.342,-0.355,9.094,115.234,-379.639,0
1.271,0.420,-0.441,0.549,92.773,-315.369,0
1.837,0.542,-0.618,-3.357,65.369,-262.024,0
-2.073,0.361,-0.386,-71.655,-12.451,159.790,0
-2.194,0.288,-0.519,-39.856,-47.729,108.032,0
-2.157,0.310,-0.544,-10.986,-83.984,42.358,0
-2.039,0.299,-0.472,10.742,-105.225,-28.381,0
-1.776,0.273,-0.350,24.597,-94.788,-101.318,0
-1.666,0.271,-0.300,30.884,-83.130,-162.842,0
-1.327,0.312,-0.242,36.255,-91.431,-214.233,0
-0.988,0.325,-0.168,45.898,-83.923,-261.169,0
-0.643,0.325,-0.134,49.683,-66.162,-303.040,0
-0.305,0.303,-0.092,31.555,-40.405,-343.140,0
0.035,0.299,-0.159,20.508,-6.775,-373.962,0
0.385,0.241,-0.302,27.222,11.780,-383.179,0
0.764,0.211,-0.436,22.827,35.278,-390.503,0
0.917,0.124,-0.584,20.996,72.998,-391.541,0
1.160,0.009,-0.784,23.804,132.996,-400.452,0
1.583,-0.044,-0.963,28.687,175.415,-390.320,0
2.226,-0.001,-0.973,34.241,193.298,-326.294,0
2.613,0.211,-0.943,43.274,113.342,-183.838,0
2.275,0.276,-0.825,52.612,-14.404,-10.498,0
1.801,0.325,-0.802,44.922,-69.946,83.862,0
1.547,0.373,-0.791,53.345,-68.848,129.883,0
1.338,0.406,-0.643,58.105,-59.814,143.738,0
1.188,0.380,-0.471,74.036,-35.767,175.598,0
1.094,0.362,-0.331,80.383,-6.592,208.923,0
0.943,0.361,-0.194,70.557,1.099,244.568,0
0.744,0.360,-0.130,52.246,-24.780,294.189,0
0.440,0.331,-0.047,38.757,-67.871,349.365,0
0.055,0.291,0.021,19.592,-79.102,388.672,0
-0.166,0.261,0.022,-3.845,-65.308,409.790,0
-0.634,0.225,0.042,-14.771,-53.589,414.246,0
-1.090,0.198,0.068,-38.940,-51.819,412.964,0
-1.484,0.125,-0.105,-59.143,-55.176,393.677,0
-1.961,0.150,-0.304,-59.814,-46.753,338.074,0
-2.375,0.236,-0.458,-51.758,-20.813,249.451,0
-2.471,0.293,-0.541,-39.063,-18.372,145.081,0
-2.411,0.293,-0.481,-5.066,-39.124,63.171,0
-2.272,0.279,-0.407,15.686,-32.410,-8.423,0
-2.024,0.304,-0.310,22.034,-32.104,-79.468,0
-1.844,0.300,-0.220,28.442,-54.871,-148.499,0
-1.468,0.276,-0.181,28.381,-54.810,-223.816,0
-1.119,0.283,-0.232,24.475,-30.396,-284.729,0
-0.772,0.310,-0.288,28.320,-15.686,-329.712,0
-0.446,0.313,-0.290,35.278,-8.118,-366.699,0
-0.150,0.275,-0.318,35.950,30.273,-410.461,0
0.237,0.144,-0.341,34.668,85.693,-453.186,0
0.649,0.019,-0.348,22.217,150.208,-483.887,0
1.099,-0.006,-0.551,-4.395,200.806,-480.713,0
1.337,0.039,-0.840,-18.127,190.308,-430.054,0
1.419,-0.025,-0.920,-7.324,181.335,-376.282,0
2.053,0.033,-0.919,4.700,160.950,-299.255,0
2.476,0.224,-0.982,8.545,38.879,-142.822,0
2.326,0.219,-0.906,15.625,-84.839,26.306,0
2.113,0.201,-0.912,14.160,-131.897,127.319,0
1.811,0.256,-0.980,19.714,-129.272,172.058,0
1.574,0.270,-0.882,48.401,-95.520,202.759,0
1.286,0.251,-0.661,82.092,-65.186,242.920,0
1.014,0.250,-0.334,98.694,-60.242,274.109,0
0.723,0.283,-0.137,85.693,-77.515,305.725,0
0.482,0.297,-0.106,51.636,-84.229,331.848,0
0.230,0.313,-0.096,25.696,-74.463,356.323,0
-0.089,0.325,-0.067,8.545,-75.745,381.531,0
-0.297,0.308,-0.044,-8.606,-80.627,397.217,0
-0.704,0.307,-0.040,-23.987,-76.965,393.311,0
-1.132,0.283,-0.011,-42.908,-63.904,372.620,0
-1.723,0.218,-0.106,-49.500,-62.195,333.618,0
-2.288,0.223,-0.265,-41.565,-70.374,251.343,0
-2.646,0.282,-0.392,-35.583,-61.646,135.315,0
-2.701,0.335,-0.494,-22.156,-44.861,13.184,0
-2.382,0.356,-0.565,-0.244,-24.536,-79.346,0
-2.026,0.364,-0.550,19.958,-10.925,-147.644,0
-1.698,0.391,-0.362,39.063,-28.992,-205.261,0
-1.401,0.376,-0.151,42.786,-28.503,-263.184,0
-1.028,0.361,-0.047,40.710,-19.958,-291.809,0
-0.702,0.322,-0.058,31.860,5.310,-342.285,0
-0.329,0.291,-0.112,19.714,40.344,-390.991,0
-0.020,0.237,-0.227,1.343,82.153,-430.908,0
0.337,0.089,-0.453,-11.353,133.972,-463.135,0
0.548,-0.097,-0.679,-22.705,194.763,-493.896,0
0.823,-0.286,-0.912,-28.076,249.390,-512.939,0
1.087,-0.464,-1.140,-29.846,284.302,-506.531,0
1.509,-0.438,-1.256,-21.484,280.273,-453.125,0
2.339,-0.214,-1.245,-7.996,191.589,-328.796,0
2.703,0.020,-1.144,0.977,2.563,-119.995,0
2.328,-0.016,-1.118,8.118,-133.606,72.021,0
1.837,0.007,-1.217,18.433,-167.053,167.725,0
1.629,0.122,-1.085,54.749,-109.741,190.002,0
1.504,0.099,-0.875,100.830,-43.335,211.365,0
1.389,0.087,-0.497,124.878,-51.147,254.639,0
1.221,0.066,-0.361,110.901,-91.736,314.941,0
0.834,0.040,-0.215,96.741,-104.980,341.675,0
0.454,0.117,-0.208,71.716,-126.831,379.456,0
0.128,0.205,-0.210,52.063,-134.949,397.766,0
-0.174,0.277,-0.102,37.964,-132.996,406.921,0
-0.452,0.314,0.002,15.198,-140.259,413.391,0
-0.740,0.318,0.019,-12.024,-125.793,418.518,0
